,participant,block_num,trial_num,condition,rt,low_opt_feed,mid_opt_feed,high_opt_feed,selected_option,selected_fvalue,difficulty,magnitude,choice,rt_quantile
0,1,4,1,ACE,1.671,33,34,48,E,48,easy,low,3,4
1,1,4,2,ABC,1.29,27,46,37,B,46,hard,low,2,2
2,1,4,3,DEF,1.571,36,43,50,E,43,hard,high,2,3
3,1,4,4,ABC,1.297,31,37,35,C,35,hard,low,3,2
4,1,4,5,BDF,1.917,28,45,62,B,28,easy,high,1,5
5,1,4,6,DEF,0.641,42,51,58,F,58,hard,high,3,1
6,1,4,7,ABC,1.815,32,36,40,C,40,hard,low,3,4
7,1,4,8,DEF,1.132,49,44,41,F,41,hard,high,3,2
8,1,4,9,ABC,1.013,26,34,30,B,34,hard,low,2,1
9,1,4,10,DEF,2.302,51,46,50,D,51,hard,high,1,5
10,1,4,11,ABC,1.576,33,37,29,B,37,hard,low,2,3
11,1,4,12,BDF,1.137,38,45,49,D,45,easy,high,2,3
12,1,4,13,ABC,2.003,33,36,38,B,36,hard,low,2,4
13,1,4,14,ACE,1.219,22,47,52,E,52,easy,low,3,2
14,1,4,15,ABC,2.243,24,42,45,B,42,hard,low,2,5
15,1,4,16,ACE,1.421,26,36,56,E,56,easy,low,3,3
16,1,4,17,ABC,1.652,42,32,38,B,32,hard,low,2,3
17,1,4,18,ACE,1.2,30,32,49,C,32,easy,low,2,2
18,1,4,19,BDF,1.302,32,44,53,D,44,easy,high,2,3
19,1,4,20,ABC,1.331,30,27,35,B,27,hard,low,2,2
20,1,4,21,BDF,1.164,32,43,45,F,45,easy,high,3,3
21,1,4,22,ABC,2.374,28,35,35,C,35,hard,low,3,5
22,1,4,23,ACE,1.904,28,32,42,E,42,easy,low,3,5
23,1,4,24,ABC,2.279,26,34,33,B,34,hard,low,2,5
24,1,4,25,DEF,1.613,38,36,56,D,38,hard,high,1,4
25,1,4,26,ACE,2.81,30,43,55,E,55,easy,low,3,6
26,1,4,27,DEF,0.747,39,48,52,F,52,hard,high,3,2
27,1,4,28,ACE,1.95,28,34,39,E,39,easy,low,3,5
28,1,4,29,DEF,0.726,39,37,60,F,60,hard,high,3,1
29,1,4,30,BDF,1.667,34,51,44,F,44,easy,high,3,4
30,1,4,31,ACE,1.621,36,37,47,E,47,easy,low,3,4
31,1,4,32,DEF,2.659,43,46,51,D,43,hard,high,1,6
32,1,4,33,ACE,2.935,25,32,53,E,53,easy,low,3,6
33,1,4,34,ABC,3.105,31,42,40,B,42,hard,low,2,6
34,1,4,35,ACE,2.003,27,38,51,E,51,easy,low,3,5
35,1,4,36,BDF,1.815,35,43,47,D,43,easy,high,2,5
36,1,4,37,ACE,1.722,30,33,52,E,52,easy,low,3,5
37,1,4,38,ABC,2.631,25,33,35,B,33,hard,low,2,5
38,1,4,39,ACE,1.727,31,33,50,E,50,easy,low,3,5
39,1,4,40,DEF,2.325,43,39,47,F,47,hard,high,3,5
40,1,4,41,ABC,1.228,24,26,39,B,26,hard,low,2,2
41,1,4,42,DEF,2.524,37,50,47,F,47,hard,high,3,6
42,1,4,43,ACE,2.08,21,39,58,C,39,easy,low,2,5
43,1,4,44,DEF,2.084,35,34,55,F,55,hard,high,3,5
44,1,4,45,ACE,3.441,24,41,44,E,44,easy,low,3,6
45,1,4,46,BDF,3.202,28,52,49,D,52,easy,high,2,6
46,1,4,47,ABC,3.851,27,26,43,B,26,hard,low,2,6
47,1,4,48,BDF,1.289,38,42,52,F,52,easy,high,3,3
48,1,4,49,ACE,1.108,32,30,38,E,38,easy,low,3,2
49,1,4,50,BDF,1.495,41,34,57,F,57,easy,high,3,4
50,1,4,51,ABC,2.661,30,39,39,B,39,hard,low,2,5
51,1,4,52,BDF,2.179,39,45,52,F,52,easy,high,3,5
52,1,4,53,ACE,3.041,32,42,52,E,52,easy,low,3,6
53,1,4,54,ABC,1.931,27,33,41,C,41,hard,low,3,4
54,1,4,55,DEF,1.604,43,44,53,F,53,hard,high,3,4
55,1,4,56,ACE,2.935,36,34,42,E,42,easy,low,3,6
56,1,4,57,ABC,2.967,23,31,46,B,31,hard,low,2,5
57,1,4,58,BDF,1.064,32,47,53,F,53,easy,high,3,3
58,1,4,59,DEF,1.251,44,45,56,F,56,hard,high,3,3
59,1,4,60,ABC,2.249,32,43,42,A,32,hard,low,1,5
60,1,4,61,ACE,1.405,28,38,49,E,49,easy,low,3,3
61,1,4,62,BDF,1.21,35,46,45,F,45,easy,high,3,3
62,1,4,63,ACE,1.349,28,39,42,E,42,easy,low,3,3
63,1,4,64,DEF,2.004,33,37,53,D,33,hard,high,1,5
64,1,4,65,ACE,3.521,31,38,50,E,50,easy,low,3,6
65,1,4,66,BDF,1.76,38,44,51,D,44,easy,high,2,4
66,1,4,67,DEF,2.054,41,54,46,D,41,hard,high,1,5
67,1,4,68,ACE,1.393,33,44,54,E,54,easy,low,3,3
68,1,4,69,DEF,2.211,38,47,50,E,47,hard,high,2,5
69,1,4,70,BDF,0.973,27,38,49,F,49,easy,high,3,2
70,1,4,71,ABC,2.625,36,35,40,C,40,hard,low,3,5
71,1,4,72,DEF,1.294,40,43,47,F,47,hard,high,3,3
72,1,4,73,ABC,1.861,39,34,35,B,34,hard,low,2,4
73,1,4,74,BDF,3.014,39,41,48,D,41,easy,high,2,6
74,1,4,75,ABC,2.415,33,29,42,A,33,hard,low,1,5
75,1,4,76,BDF,1.732,33,50,42,F,42,easy,high,3,4
76,1,4,77,DEF,1.666,40,48,43,F,43,hard,high,3,4
77,1,4,78,ACE,1.705,29,38,49,E,49,easy,low,3,4
78,1,4,79,BDF,2.773,31,47,49,F,49,easy,high,3,6
79,1,4,80,ABC,1.039,32,43,36,A,32,hard,low,1,2
80,1,4,81,BDF,2.2,29,45,44,D,45,easy,high,2,5
81,1,4,82,ABC,2.155,32,41,45,B,41,hard,low,2,5
82,1,4,83,DEF,2.026,40,49,54,D,40,hard,high,1,5
83,1,4,84,ACE,1.652,29,43,45,E,45,easy,low,3,4
84,1,4,85,ABC,1.329,35,34,39,B,34,hard,low,2,2
85,1,4,86,DEF,1.895,35,47,48,F,48,hard,high,3,5
86,1,4,87,BDF,1.798,31,42,57,F,57,easy,high,3,4
87,1,4,88,DEF,1.189,37,45,46,F,46,hard,high,3,2
88,1,4,89,ACE,1.838,30,28,50,E,50,easy,low,3,5
89,1,4,90,DEF,4.266,44,41,52,F,52,hard,high,3,6
90,1,4,91,ABC,3.279,34,32,41,C,41,hard,low,3,6
91,1,4,92,ACE,1.782,18,37,46,E,46,easy,low,3,5
92,1,4,94,ACE,0.744,34,43,48,E,48,easy,low,3,1
93,1,4,95,DEF,1.32,40,42,48,E,42,hard,high,2,3
94,1,4,96,ABC,0.859,29,32,29,C,29,hard,low,3,1
95,1,4,97,BDF,0.974,41,45,54,F,54,easy,high,3,2
96,1,4,98,ACE,1.504,40,50,50,C,50,easy,low,2,3
97,1,4,99,BDF,1.886,35,41,40,F,40,easy,high,3,5
98,1,4,100,ACE,1.241,34,37,40,E,40,easy,low,3,3
99,1,4,101,DEF,1.833,36,41,52,F,52,hard,high,3,4
100,1,4,102,ACE,0.84,33,41,47,E,47,easy,low,3,1
101,1,4,103,DEF,1.586,40,45,44,F,44,hard,high,3,4
102,1,4,104,BDF,1.418,28,49,54,F,54,easy,high,3,4
103,1,4,105,ACE,1.618,29,36,51,E,51,easy,low,3,4
104,1,4,106,ABC,2.1,35,37,34,C,34,hard,low,3,4
105,1,4,107,DEF,1.722,41,46,54,F,54,hard,high,3,4
106,1,4,108,BDF,2.4,40,39,51,F,51,easy,high,3,6
107,1,4,109,DEF,2.581,48,43,52,F,52,hard,high,3,6
108,1,4,110,ACE,1.403,23,36,41,E,41,easy,low,3,3
109,1,4,111,ABC,1.845,20,31,42,C,42,hard,low,3,4
110,1,4,112,DEF,2.682,50,44,59,F,59,hard,high,3,6
111,1,4,113,BDF,2.053,39,38,53,F,53,easy,high,3,5
112,1,4,114,DEF,1.87,37,50,47,F,47,hard,high,3,4
113,1,4,115,BDF,2.049,36,43,49,F,49,easy,high,3,5
114,1,4,116,ACE,3.076,28,37,47,E,47,easy,low,3,6
115,1,4,117,BDF,1.55,31,48,53,F,53,easy,high,3,4
116,1,4,118,DEF,1.929,37,44,55,F,55,hard,high,3,5
117,1,4,119,ABC,1.351,34,32,33,C,33,hard,low,3,2
118,1,4,120,BDF,1.59,40,42,59,F,59,easy,high,3,4
119,1,4,121,ACE,1.516,26,38,43,E,43,easy,low,3,4
120,1,4,122,DEF,1.038,45,42,49,D,45,hard,high,1,2
121,1,4,123,BDF,0.71,36,39,54,F,54,easy,high,3,1
122,1,4,124,DEF,0.817,40,53,42,F,42,hard,high,3,2
123,1,4,125,ABC,1.488,38,29,39,C,39,hard,low,3,3
124,1,4,126,BDF,1.603,25,42,44,F,44,easy,high,3,4
125,1,4,127,ABC,3.205,37,38,36,B,38,hard,low,2,6
126,1,4,128,ACE,1.305,30,46,43,E,43,easy,low,3,3
127,1,4,129,BDF,0.9,30,46,56,F,56,easy,high,3,2
128,1,4,130,ABC,0.876,37,22,37,C,37,hard,low,3,1
129,1,4,131,ACE,1.025,27,41,46,E,46,easy,low,3,2
130,1,4,132,DEF,0.969,42,47,51,E,47,hard,high,2,2
131,1,4,133,ACE,1.233,31,31,43,E,43,easy,low,3,2
132,1,4,134,DEF,0.579,47,48,53,F,53,hard,high,3,1
133,1,4,135,BDF,0.937,37,41,38,F,38,easy,high,3,2
134,1,4,136,ABC,1.971,36,33,38,C,38,hard,low,3,4
135,1,4,137,DEF,1.571,41,47,51,F,51,hard,high,3,3
136,1,4,138,ACE,2.023,37,34,51,E,51,easy,low,3,5
137,1,4,139,ABC,1.32,24,30,45,C,45,hard,low,3,2
138,1,4,140,BDF,1.432,35,47,50,F,50,easy,high,3,4
139,1,4,141,ACE,1.569,29,40,43,E,43,easy,low,3,4
140,1,4,142,BDF,1.963,35,46,56,F,56,easy,high,3,5
141,1,4,143,ABC,2.138,27,38,33,B,38,hard,low,2,4
142,1,4,144,ACE,1.611,29,44,49,E,49,easy,low,3,4
143,1,4,145,DEF,1.404,39,41,55,E,41,hard,high,2,3
144,1,4,146,BDF,0.907,27,49,58,F,58,easy,high,3,2
145,1,4,147,ABC,3.199,31,34,48,C,48,hard,low,3,6
146,1,4,148,BDF,1.032,35,44,48,F,48,easy,high,3,3
147,1,4,149,ACE,1.628,34,40,41,E,41,easy,low,3,4
148,1,4,150,ABC,1.604,33,33,34,A,33,hard,low,1,3
149,1,4,151,DEF,1.581,39,48,50,F,50,hard,high,3,4
150,1,4,152,ABC,1.66,35,30,40,C,40,hard,low,3,3
151,1,4,153,DEF,1.292,46,38,54,F,54,hard,high,3,3
152,1,4,154,BDF,2.126,29,35,43,F,43,easy,high,3,5
153,1,4,155,ACE,1.271,23,36,55,E,55,easy,low,3,3
154,1,4,156,DEF,1.47,44,39,51,F,51,hard,high,3,3
155,1,4,157,ACE,1.129,25,43,49,C,43,easy,low,2,2
156,1,4,158,ABC,1.431,30,37,44,C,44,hard,low,3,3
157,1,4,159,DEF,1.332,48,40,50,F,50,hard,high,3,3
158,1,4,160,ABC,2.828,27,30,41,C,41,hard,low,3,5
159,1,4,161,BDF,0.787,40,54,49,F,49,easy,high,3,1
160,1,4,162,ACE,1.599,35,44,44,E,44,easy,low,3,4
161,1,4,163,ABC,1.406,25,33,36,B,33,hard,low,2,2
162,1,4,164,DEF,1.408,42,40,49,F,49,hard,high,3,3
163,1,4,165,BDF,2.07,30,36,52,D,36,easy,high,2,5
164,1,4,166,ACE,1.044,39,37,52,C,37,easy,low,2,2
165,1,4,167,ABC,1.672,22,29,39,C,39,hard,low,3,3
166,1,4,168,DEF,1.057,41,44,50,F,50,hard,high,3,2
167,1,4,169,ACE,1.616,21,35,45,E,45,easy,low,3,4
168,1,4,170,BDF,0.91,31,47,43,F,43,easy,high,3,2
169,1,4,171,DEF,2.285,43,46,45,F,45,hard,high,3,5
170,1,4,172,BDF,0.917,28,43,51,F,51,easy,high,3,2
171,1,4,173,ACE,1.514,28,47,45,E,45,easy,low,3,3
172,1,4,174,BDF,1.055,25,41,46,F,46,easy,high,3,3
173,1,4,175,DEF,1.795,37,42,48,F,48,hard,high,3,4
174,1,4,176,BDF,0.969,34,34,50,F,50,easy,high,3,2
175,1,4,177,DEF,2.745,48,46,47,F,47,hard,high,3,6
176,1,4,178,BDF,3.108,30,42,55,F,55,easy,high,3,6
177,1,4,179,DEF,2.505,30,45,48,F,48,hard,high,3,6
178,1,4,180,BDF,1.876,33,32,57,F,57,easy,high,3,5
179,1,4,181,ABC,3.5,25,36,31,C,31,hard,low,3,6
180,1,4,182,BDF,1.404,40,46,45,F,45,easy,high,3,4
181,1,4,183,ABC,3.138,26,36,35,C,35,hard,low,3,6
182,1,4,184,DEF,1.044,46,48,46,F,46,hard,high,3,2
183,1,4,185,ACE,2.229,29,26,53,E,53,easy,low,3,5
184,1,4,186,BDF,3.027,24,45,48,F,48,easy,high,3,6
185,1,4,187,DEF,1.759,39,46,55,F,55,hard,high,3,4
186,1,4,188,ABC,1.779,38,37,41,B,37,hard,low,2,4
187,1,4,189,DEF,1.206,40,45,45,F,45,hard,high,3,2
188,1,4,190,BDF,0.769,38,38,51,F,51,easy,high,3,1
189,1,4,191,ACE,1.751,34,32,51,E,51,easy,low,3,5
190,1,4,192,BDF,2.016,33,33,41,F,41,easy,high,3,5
191,1,4,193,ABC,1.542,26,37,39,A,26,hard,low,1,3
192,1,4,194,ACE,1.486,31,40,47,E,47,easy,low,3,3
193,1,4,195,DEF,0.979,38,40,46,E,40,hard,high,2,2
194,1,4,196,BDF,0.832,36,44,47,F,47,easy,high,3,2
195,1,4,197,ACE,1.268,35,42,49,E,49,easy,low,3,3
196,1,4,198,ABC,1.519,31,44,37,C,37,hard,low,3,3
197,1,4,199,BDF,0.943,31,36,46,F,46,easy,high,3,2
198,1,4,200,ABC,2.355,29,34,31,B,34,hard,low,2,5
199,2,4,1,BDF,1.733,27,47,51,F,51,easy,high,3,5
200,2,4,2,ABC,1.943,31,30,42,B,30,hard,low,2,6
201,2,4,3,ACE,2.074,33,28,39,C,28,easy,low,2,5
202,2,4,4,DEF,1.554,44,52,51,F,51,hard,high,3,5
203,2,4,5,ACE,2.516,28,36,47,E,47,easy,low,3,6
204,2,4,6,ABC,1.42,25,29,43,A,25,hard,low,1,4
205,2,4,7,ACE,1.042,32,40,47,C,40,easy,low,2,2
206,2,4,8,ABC,1.955,23,25,29,B,25,hard,low,2,6
207,2,4,9,BDF,2.019,38,45,45,F,45,easy,high,3,6
208,2,4,10,ACE,1.498,28,35,54,E,54,easy,low,3,5
209,2,4,11,ABC,1.846,31,39,33,C,33,hard,low,3,5
210,2,4,12,DEF,1.84,48,50,46,F,46,hard,high,3,6
211,2,4,13,ACE,0.709,32,44,46,E,46,easy,low,3,1
212,2,4,14,BDF,2.408,29,37,45,F,45,easy,high,3,6
213,2,4,15,DEF,1.068,40,40,46,E,40,hard,high,2,4
214,2,4,16,BDF,1.142,34,42,50,F,50,easy,high,3,4
215,2,4,17,ACE,1.32,26,39,40,A,26,easy,low,1,4
216,2,4,18,DEF,1.633,50,41,46,F,46,hard,high,3,5
217,2,4,19,ACE,1.402,26,41,42,E,42,easy,low,3,4
218,2,4,20,DEF,1.064,44,38,49,E,38,hard,high,2,4
219,2,4,21,ABC,1.552,39,22,44,B,22,hard,low,2,5
220,2,4,22,ACE,2.736,36,41,52,C,41,easy,low,2,6
221,2,4,23,BDF,1.091,32,41,50,F,50,easy,high,3,4
222,2,4,24,ACE,2.16,29,43,51,E,51,easy,low,3,6
223,2,4,25,BDF,1.136,34,41,57,F,57,easy,high,3,4
224,2,4,26,DEF,0.705,36,55,54,F,54,hard,high,3,2
225,2,4,27,ABC,1.464,29,38,34,C,34,hard,low,3,4
226,2,4,28,BDF,0.996,32,43,41,F,41,easy,high,3,4
227,2,4,29,DEF,1.334,44,49,50,F,50,hard,high,3,4
228,2,4,30,ACE,1.316,26,39,47,E,47,easy,low,3,4
229,2,4,31,BDF,0.838,33,49,52,F,52,easy,high,3,3
230,2,4,32,DEF,0.654,50,47,41,F,41,hard,high,3,2
231,2,4,33,BDF,1.815,31,41,58,F,58,easy,high,3,6
232,2,4,34,ACE,1.109,35,41,45,E,45,easy,low,3,3
233,2,4,35,ABC,1.369,30,43,41,C,41,hard,low,3,4
234,2,4,36,ACE,1.18,27,39,46,E,46,easy,low,3,3
235,2,4,37,ABC,1.481,29,39,29,C,29,hard,low,3,4
236,2,4,38,BDF,0.967,29,39,49,F,49,easy,high,3,3
237,2,4,39,DEF,0.738,39,51,52,F,52,hard,high,3,2
238,2,4,40,BDF,1.103,40,45,55,F,55,easy,high,3,4
239,2,4,41,ACE,1.192,35,31,53,E,53,easy,low,3,4
240,2,4,42,BDF,0.897,38,46,54,F,54,easy,high,3,3
241,2,4,43,ABC,1.5,28,34,36,B,34,hard,low,2,4
242,2,4,44,BDF,2.333,41,35,57,F,57,easy,high,3,6
243,2,4,45,DEF,0.717,43,46,62,F,62,hard,high,3,2
244,2,4,46,ABC,1.544,34,30,42,B,30,hard,low,2,5
245,2,4,47,DEF,0.85,40,49,54,F,54,hard,high,3,3
246,2,4,48,ACE,1.617,33,35,45,E,45,easy,low,3,5
247,2,4,49,ABC,1.49,24,35,37,C,37,hard,low,3,4
248,2,4,50,DEF,0.842,38,53,54,F,54,hard,high,3,3
249,2,4,51,ABC,1.333,31,29,38,C,38,hard,low,3,3
250,2,4,52,DEF,0.648,32,50,50,F,50,hard,high,3,2
251,2,4,53,ACE,0.907,34,30,43,E,43,easy,low,3,2
252,2,4,54,ABC,1.002,35,27,40,C,40,hard,low,3,1
253,2,4,55,ACE,1.124,33,40,48,E,48,easy,low,3,3
254,2,4,56,ABC,1.097,32,35,40,B,35,hard,low,2,2
255,2,4,57,ACE,1.084,26,34,46,E,46,easy,low,3,3
256,2,4,58,BDF,0.732,37,41,52,F,52,easy,high,3,2
257,2,4,59,ABC,1.117,34,36,31,C,31,hard,low,3,2
258,2,4,60,DEF,0.657,39,58,59,F,59,hard,high,3,2
259,2,4,61,ACE,1.188,37,38,37,E,37,easy,low,3,3
260,2,4,62,DEF,1.682,44,49,59,F,59,hard,high,3,6
261,2,4,63,ABC,1.156,22,35,35,C,35,hard,low,3,2
262,2,4,64,BDF,0.695,32,46,46,F,46,easy,high,3,2
263,2,4,65,ACE,1.118,33,50,44,E,44,easy,low,3,3
264,2,4,66,DEF,0.687,37,48,42,F,42,hard,high,3,2
265,2,4,67,ABC,1.329,24,34,30,C,30,hard,low,3,3
266,2,4,68,BDF,1.01,36,42,54,F,54,easy,high,3,4
267,2,4,69,ABC,1.06,28,31,38,C,38,hard,low,3,2
268,2,4,70,DEF,0.617,42,53,48,F,48,hard,high,3,1
269,2,4,71,ACE,2.167,34,44,44,E,44,easy,low,3,6
270,2,4,72,BDF,0.867,33,48,49,F,49,easy,high,3,3
271,2,4,73,ACE,1.168,37,45,40,E,40,easy,low,3,3
272,2,4,74,ABC,1.294,40,35,32,C,32,hard,low,3,3
273,2,4,75,ACE,2.189,31,36,51,C,36,easy,low,2,6
274,2,4,76,ABC,1.664,25,32,38,C,38,hard,low,3,5
275,2,4,77,BDF,0.913,39,43,48,F,48,easy,high,3,3
276,2,4,78,DEF,0.792,33,55,44,F,44,hard,high,3,3
277,2,4,79,BDF,1.203,33,43,49,F,49,easy,high,3,5
278,2,4,80,ACE,1.268,25,38,47,E,47,easy,low,3,4
279,2,4,81,ABC,1.188,23,37,46,C,46,hard,low,3,2
280,2,4,82,ACE,1.104,37,37,37,E,37,easy,low,3,3
281,2,4,83,ABC,1.341,27,34,45,C,45,hard,low,3,3
282,2,4,84,ACE,1.112,31,43,44,E,44,easy,low,3,3
283,2,4,85,DEF,3.448,35,49,51,F,51,hard,high,3,6
284,2,4,86,ACE,1.135,28,38,50,E,50,easy,low,3,3
285,2,4,87,ABC,0.962,38,30,40,C,40,hard,low,3,1
286,2,4,88,ACE,0.946,27,33,36,E,36,easy,low,3,2
287,2,4,89,DEF,1.512,42,44,56,E,44,hard,high,2,5
288,2,4,90,BDF,1.722,35,36,47,F,47,easy,high,3,5
289,2,4,91,DEF,1.554,46,48,46,F,46,hard,high,3,5
290,2,4,92,ABC,1.228,33,30,38,C,38,hard,low,3,2
291,2,4,93,BDF,1.255,31,46,50,F,50,easy,high,3,5
292,2,4,94,ABC,1.349,34,25,39,C,39,hard,low,3,4
293,2,4,95,DEF,1.56,40,41,38,E,41,hard,high,2,5
294,2,4,96,ACE,1.476,30,39,47,C,39,easy,low,2,4
295,2,4,97,ABC,1.245,32,46,35,C,35,hard,low,3,3
296,2,4,98,BDF,1.022,27,45,44,F,44,easy,high,3,4
297,2,4,99,ACE,0.901,32,37,45,E,45,easy,low,3,2
298,2,4,100,BDF,1.062,34,49,53,F,53,easy,high,3,4
299,2,4,101,ABC,1.327,29,40,36,C,36,hard,low,3,3
300,2,4,102,DEF,1.402,40,45,45,E,45,hard,high,2,5
301,2,4,103,BDF,1.044,36,49,48,F,48,easy,high,3,4
302,2,4,104,DEF,1.14,45,50,57,E,50,hard,high,2,4
303,2,4,105,BDF,0.917,34,37,49,F,49,easy,high,3,3
304,2,4,106,DEF,1.057,33,43,55,F,55,hard,high,3,4
305,2,4,107,ACE,1.029,33,32,39,C,32,easy,low,2,2
306,2,4,108,ABC,0.998,21,28,45,C,45,hard,low,3,1
307,2,4,109,BDF,0.74,32,38,49,F,49,easy,high,3,3
308,2,4,110,ACE,1.146,30,32,45,E,45,easy,low,3,3
309,2,4,111,ABC,1.317,18,44,41,C,41,hard,low,3,3
310,2,4,112,DEF,1.422,48,48,52,F,52,hard,high,3,5
311,2,4,113,BDF,1.638,31,40,53,F,53,easy,high,3,5
312,2,4,114,DEF,0.778,54,41,55,F,55,hard,high,3,3
313,2,4,115,BDF,0.773,36,42,50,F,50,easy,high,3,3
314,2,4,116,ABC,0.875,31,37,42,C,42,hard,low,3,1
315,2,4,117,DEF,0.819,47,44,44,F,44,hard,high,3,3
316,2,4,118,ACE,1.262,27,26,43,C,26,easy,low,2,4
317,2,4,119,DEF,0.935,40,38,56,F,56,hard,high,3,3
318,2,4,120,ABC,1.264,38,37,35,C,35,hard,low,3,3
319,2,4,121,DEF,0.982,45,46,48,F,48,hard,high,3,3
320,2,4,122,ACE,1.485,29,40,50,E,50,easy,low,3,5
321,2,4,123,DEF,1.115,43,47,43,F,43,hard,high,3,4
322,2,4,124,BDF,0.822,39,37,42,F,42,easy,high,3,3
323,2,4,125,DEF,1.084,42,50,55,E,50,hard,high,2,4
324,2,4,126,BDF,0.696,30,47,48,F,48,easy,high,3,2
325,2,4,127,DEF,1.037,30,42,49,E,42,hard,high,2,3
326,2,4,128,BDF,0.881,40,41,51,F,51,easy,high,3,3
327,2,4,129,ACE,0.999,30,39,42,E,42,easy,low,3,2
328,2,4,130,ABC,1.128,25,36,33,B,36,hard,low,2,2
329,2,4,131,DEF,1.655,36,34,58,E,34,hard,high,2,6
330,2,4,132,ACE,1.217,31,35,51,E,51,easy,low,3,4
331,2,4,133,ABC,1.578,31,35,36,B,35,hard,low,2,5
332,2,4,134,DEF,1.381,34,43,52,E,43,hard,high,2,4
333,2,4,135,ABC,1.27,34,31,46,B,31,hard,low,2,3
334,2,4,136,DEF,0.658,41,56,47,F,47,hard,high,3,2
335,2,4,137,ACE,1.106,27,47,42,E,42,easy,low,3,3
336,2,4,138,DEF,0.56,39,43,40,F,40,hard,high,3,1
337,2,4,139,ACE,0.885,24,35,45,C,35,easy,low,2,2
338,2,4,140,DEF,1.184,48,43,52,F,52,hard,high,3,4
339,2,4,141,BDF,0.54,28,51,47,F,47,easy,high,3,1
340,2,4,142,ACE,2.075,28,37,44,C,37,easy,low,2,6
341,2,4,143,BDF,0.721,34,44,53,F,53,easy,high,3,2
342,2,4,144,ABC,1.212,20,33,32,B,33,hard,low,2,2
343,2,4,145,ACE,1.085,29,34,41,E,41,easy,low,3,3
344,2,4,146,ABC,1.724,33,33,37,B,33,hard,low,2,5
345,2,4,147,DEF,0.63,39,46,49,F,49,hard,high,3,1
346,2,4,148,ABC,1.248,22,29,33,B,29,hard,low,2,3
347,2,4,149,BDF,0.665,37,46,47,F,47,easy,high,3,2
348,2,4,150,ACE,1.193,26,33,46,E,46,easy,low,3,4
349,2,4,151,ABC,1.483,30,43,41,C,41,hard,low,3,4
350,2,4,152,BDF,0.571,38,47,52,F,52,easy,high,3,2
351,2,4,153,ABC,1.127,29,32,43,C,43,hard,low,3,2
352,2,4,154,DEF,1.409,35,49,48,E,49,hard,high,2,5
353,2,4,155,ABC,1.307,25,35,42,A,25,hard,low,1,3
354,2,4,156,BDF,0.76,33,37,53,F,53,easy,high,3,3
355,2,4,157,DEF,0.775,38,51,51,F,51,hard,high,3,2
356,2,4,158,ABC,1.275,21,36,44,C,44,hard,low,3,3
357,2,4,159,BDF,0.784,28,39,47,F,47,easy,high,3,3
358,2,4,160,ABC,1.402,24,33,36,B,33,hard,low,2,4
359,2,4,161,DEF,0.646,47,45,56,F,56,hard,high,3,1
360,2,4,162,BDF,0.734,30,38,50,F,50,easy,high,3,2
361,2,4,163,ABC,1.779,36,28,43,B,28,hard,low,2,5
362,2,4,164,BDF,0.564,32,41,45,F,45,easy,high,3,1
363,2,4,165,DEF,1.013,41,42,54,E,42,hard,high,2,3
364,2,4,166,ACE,0.938,36,48,43,E,43,easy,low,3,2
365,2,4,167,ABC,1.1,42,42,38,B,42,hard,low,2,2
366,2,4,168,DEF,0.662,42,52,53,F,53,hard,high,3,2
367,2,4,169,ABC,0.834,30,41,39,C,39,hard,low,3,1
368,2,4,170,BDF,0.642,31,40,43,F,43,easy,high,3,2
369,2,4,171,ABC,0.902,27,42,34,C,34,hard,low,3,1
370,2,4,172,ACE,0.776,32,37,39,E,39,easy,low,3,1
371,2,4,173,ABC,1.498,32,26,40,C,40,hard,low,3,4
372,2,4,174,BDF,0.706,35,52,48,F,48,easy,high,3,2
373,2,4,175,DEF,0.595,43,48,60,F,60,hard,high,3,1
374,2,4,176,ACE,0.886,39,37,45,E,45,easy,low,3,2
375,2,4,177,DEF,0.465,44,40,51,F,51,hard,high,3,1
376,2,4,178,BDF,0.649,39,45,53,F,53,easy,high,3,2
377,2,4,179,ABC,1.059,30,40,37,C,37,hard,low,3,1
378,2,4,180,ACE,0.771,27,41,52,E,52,easy,low,3,1
379,2,4,181,BDF,0.59,38,38,43,F,43,easy,high,3,2
380,2,4,182,DEF,0.529,45,44,47,F,47,hard,high,3,1
381,2,4,183,ACE,0.758,29,47,48,E,48,easy,low,3,1
382,2,4,184,BDF,0.5,36,34,55,F,55,easy,high,3,1
383,2,4,185,ABC,1.198,30,31,36,C,36,hard,low,3,2
384,2,4,186,DEF,0.955,39,47,51,F,51,hard,high,3,3
385,2,4,187,BDF,0.489,33,38,45,F,45,easy,high,3,1
386,2,4,188,ACE,0.738,36,34,41,E,41,easy,low,3,1
387,2,4,189,DEF,0.865,43,54,50,F,50,hard,high,3,3
388,2,4,190,ACE,0.84,26,31,46,E,46,easy,low,3,2
389,2,4,191,BDF,0.45,37,42,56,F,56,easy,high,3,1
390,2,4,192,ACE,0.644,35,39,49,E,49,easy,low,3,1
391,2,4,193,ABC,1.514,23,37,42,C,42,hard,low,3,4
392,2,4,194,BDF,0.56,26,51,46,F,46,easy,high,3,1
393,2,4,195,DEF,0.93,44,48,51,F,51,hard,high,3,3
394,2,4,196,BDF,0.844,24,36,44,F,44,easy,high,3,3
395,2,4,197,ACE,1.19,28,42,49,C,42,easy,low,2,4
396,2,4,198,BDF,0.466,38,46,53,F,53,easy,high,3,1
397,2,4,199,ACE,0.901,35,34,42,E,42,easy,low,3,2
398,2,4,200,BDF,0.584,41,43,47,F,47,easy,high,3,2
399,3,4,1,BDF,1.316,24,43,46,F,46,easy,high,3,6
400,3,4,2,DEF,1.079,41,45,50,E,45,hard,high,2,4
401,3,4,3,BDF,0.712,37,43,52,F,52,easy,high,3,3
402,3,4,4,ACE,0.766,29,31,54,C,31,easy,low,2,2
403,3,4,5,BDF,0.988,40,47,51,F,51,easy,high,3,5
404,3,4,6,ACE,0.61,34,43,52,E,52,easy,low,3,1
405,3,4,7,BDF,0.834,29,49,48,F,48,easy,high,3,5
406,3,4,8,ACE,1.175,35,42,51,E,51,easy,low,3,4
407,3,4,9,ABC,0.795,34,41,31,C,31,hard,low,3,3
408,3,4,10,ACE,1.109,31,39,40,E,40,easy,low,3,4
409,3,4,11,BDF,0.79,40,41,62,F,62,easy,high,3,4
410,3,4,12,ACE,0.756,32,48,44,C,48,easy,low,2,2
411,3,4,13,BDF,0.841,28,38,46,F,46,easy,high,3,5
412,3,4,14,ACE,1.028,23,44,48,E,48,easy,low,3,3
413,3,4,15,ABC,1.427,31,27,35,C,35,hard,low,3,5
414,3,4,16,ACE,0.745,27,33,49,E,49,easy,low,3,2
415,3,4,17,BDF,0.87,33,40,52,F,52,easy,high,3,5
416,3,4,18,ACE,0.881,42,36,39,E,39,easy,low,3,3
417,3,4,19,DEF,0.828,40,42,48,E,42,hard,high,2,2
418,3,4,20,ABC,0.947,31,30,29,C,29,hard,low,3,4
419,3,4,21,ACE,1.374,36,45,36,E,36,easy,low,3,5
420,3,4,22,BDF,0.597,31,46,59,F,59,easy,high,3,2
421,3,4,23,DEF,1.289,32,49,48,E,49,hard,high,2,5
422,3,4,24,BDF,0.696,35,48,56,F,56,easy,high,3,3
423,3,4,25,ABC,0.799,24,30,41,C,41,hard,low,3,3
424,3,4,26,DEF,1.525,47,41,41,E,41,hard,high,2,5
425,3,4,27,ABC,0.851,37,34,45,C,45,hard,low,3,4
426,3,4,28,ACE,1.409,35,38,49,E,49,easy,low,3,5
427,3,4,29,DEF,2.606,46,47,43,F,43,hard,high,3,6
428,3,4,30,ACE,0.973,25,32,53,C,32,easy,low,2,3
429,3,4,31,DEF,0.873,43,45,53,E,45,hard,high,2,3
430,3,4,32,ACE,1.066,29,40,46,C,40,easy,low,2,4
431,3,4,33,DEF,1.02,38,46,50,E,46,hard,high,2,3
432,3,4,34,ABC,0.77,30,36,33,C,33,hard,low,3,3
433,3,4,35,ACE,2.527,29,40,51,C,40,easy,low,2,6
434,3,4,36,DEF,0.849,36,49,58,F,58,hard,high,3,2
435,3,4,37,ACE,0.665,36,40,44,C,40,easy,low,2,1
436,3,4,38,BDF,0.882,27,36,44,F,44,easy,high,3,5
437,3,4,39,ABC,0.742,33,37,43,C,43,hard,low,3,3
438,3,4,40,DEF,1.327,46,45,47,E,45,hard,high,2,5
439,3,4,41,BDF,0.773,39,49,57,F,57,easy,high,3,4
440,3,4,42,ACE,1.056,31,35,43,C,35,easy,low,2,4
441,3,4,43,DEF,0.599,33,48,51,F,51,hard,high,3,1
442,3,4,44,ABC,0.989,21,30,42,C,42,hard,low,3,4
443,3,4,45,ACE,0.755,32,44,48,C,44,easy,low,2,2
444,3,4,46,BDF,1.109,36,39,52,F,52,easy,high,3,6
445,3,4,47,ACE,1.368,33,39,39,C,39,easy,low,2,5
446,3,4,48,DEF,0.668,45,41,44,F,44,hard,high,3,2
447,3,4,49,BDF,0.722,35,45,54,F,54,easy,high,3,3
448,3,4,50,DEF,0.854,42,49,38,E,49,hard,high,2,2
449,3,4,51,ACE,0.622,30,28,43,C,28,easy,low,2,1
450,3,4,52,ABC,0.866,28,29,39,C,39,hard,low,3,4
451,3,4,53,ACE,0.968,39,37,49,C,37,easy,low,2,3
452,3,4,54,BDF,0.55,37,49,55,F,55,easy,high,3,1
453,3,4,55,DEF,1.832,43,53,47,F,47,hard,high,3,6
454,3,4,56,ACE,0.805,40,50,54,C,50,easy,low,2,2
455,3,4,57,BDF,0.731,36,35,53,F,53,easy,high,3,4
456,3,4,58,ACE,1.064,26,30,42,C,30,easy,low,2,4
457,3,4,59,ABC,2.571,38,39,36,C,36,hard,low,3,6
458,3,4,60,BDF,0.821,33,47,54,F,54,easy,high,3,5
459,3,4,61,ABC,0.57,31,33,41,C,41,hard,low,3,1
460,3,4,62,ACE,0.592,30,39,40,C,39,easy,low,2,1
461,3,4,63,BDF,0.774,34,41,45,B,34,easy,high,1,4
462,3,4,64,ABC,0.746,35,36,37,C,37,hard,low,3,3
463,3,4,65,DEF,0.945,44,48,55,E,48,hard,high,2,3
464,3,4,66,ABC,0.801,28,34,43,C,43,hard,low,3,4
465,3,4,67,ACE,0.812,25,34,50,C,34,easy,low,2,2
466,3,4,68,BDF,0.541,39,45,50,F,50,easy,high,3,1
467,3,4,69,ACE,0.779,32,34,44,C,34,easy,low,2,2
468,3,4,70,DEF,1.138,44,47,52,F,52,hard,high,3,4
469,3,4,71,BDF,1.071,38,41,54,F,54,easy,high,3,5
470,3,4,72,ABC,1.24,29,25,31,C,31,hard,low,3,5
471,3,4,73,ACE,0.947,26,43,46,C,43,easy,low,2,3
472,3,4,74,DEF,0.987,41,55,57,E,55,hard,high,2,3
473,3,4,75,ABC,0.903,25,39,37,C,37,hard,low,3,4
474,3,4,76,ACE,1.804,37,37,46,E,46,easy,low,3,6
475,3,4,77,ABC,0.638,20,40,38,C,38,hard,low,3,2
476,3,4,78,ACE,1.343,25,35,44,E,44,easy,low,3,5
477,3,4,79,BDF,0.82,31,42,43,F,43,easy,high,3,4
478,3,4,80,DEF,2.306,33,50,57,E,50,hard,high,2,6
479,3,4,81,ABC,0.89,37,34,40,C,40,hard,low,3,4
480,3,4,82,ACE,1.523,28,35,45,E,45,easy,low,3,5
481,3,4,83,DEF,1.776,42,47,51,F,51,hard,high,3,6
482,3,4,84,ABC,0.759,23,39,37,C,37,hard,low,3,3
483,3,4,85,DEF,1.635,36,47,56,F,56,hard,high,3,6
484,3,4,86,ABC,0.735,27,37,39,B,37,hard,low,2,3
485,3,4,87,DEF,1.745,44,34,51,F,51,hard,high,3,6
486,3,4,88,ABC,1.246,33,26,33,C,33,hard,low,3,5
487,3,4,89,ACE,1.974,26,34,51,E,51,easy,low,3,6
488,3,4,90,ABC,0.705,25,33,34,C,34,hard,low,3,2
489,3,4,91,DEF,1.361,50,50,54,F,54,hard,high,3,5
490,3,4,92,ACE,1.019,27,35,50,C,35,easy,low,2,3
491,3,4,93,DEF,1.174,52,44,56,F,56,hard,high,3,4
492,3,4,94,BDF,1.03,38,43,46,F,46,easy,high,3,5
493,3,4,95,ABC,0.791,28,32,42,C,42,hard,low,3,3
494,3,4,96,DEF,1.598,39,43,50,F,50,hard,high,3,5
495,3,4,97,BDF,1.891,32,39,45,F,45,easy,high,3,6
496,3,4,98,ABC,1.898,21,33,46,C,46,hard,low,3,6
497,3,4,99,ACE,2.479,39,41,45,E,45,easy,low,3,6
498,3,4,100,BDF,0.662,44,38,48,F,48,easy,high,3,3
499,3,4,101,ACE,1.225,28,39,37,E,37,easy,low,3,5
500,3,4,102,ABC,0.944,26,30,41,C,41,hard,low,3,4
501,3,4,103,DEF,0.918,40,50,43,F,43,hard,high,3,3
502,3,4,104,ACE,1.437,34,46,51,E,51,easy,low,3,5
503,3,4,105,DEF,5.447,37,44,56,F,56,hard,high,3,6
504,3,4,106,ACE,1.351,29,44,43,E,43,easy,low,3,5
505,3,4,107,DEF,0.66,38,50,47,F,47,hard,high,3,1
506,3,4,108,ACE,0.78,34,30,48,E,48,easy,low,3,2
507,3,4,109,ABC,1.692,34,28,42,C,42,hard,low,3,6
508,3,4,110,BDF,0.817,43,41,50,F,50,easy,high,3,4
509,3,4,111,DEF,1.379,44,45,40,F,40,hard,high,3,5
510,3,4,112,ABC,0.494,24,38,38,C,38,hard,low,3,1
511,3,4,113,BDF,0.837,42,40,42,F,42,easy,high,3,5
512,3,4,114,DEF,1.034,44,42,46,F,46,hard,high,3,3
513,3,4,115,BDF,0.473,25,35,49,F,49,easy,high,3,1
514,3,4,116,ACE,1.163,26,35,37,E,37,easy,low,3,4
515,3,4,117,BDF,0.642,26,45,49,F,49,easy,high,3,2
516,3,4,118,DEF,1.165,51,43,49,F,49,hard,high,3,4
517,3,4,119,ABC,0.911,31,38,37,C,37,hard,low,3,4
518,3,4,120,DEF,0.871,39,41,42,F,42,hard,high,3,3
519,3,4,121,ACE,0.885,33,34,53,E,53,easy,low,3,3
520,3,4,122,BDF,0.731,27,39,51,F,51,easy,high,3,4
521,3,4,123,ACE,0.818,29,47,40,E,40,easy,low,3,2
522,3,4,124,DEF,0.798,48,45,58,E,45,hard,high,2,2
523,3,4,125,ABC,2.182,27,29,36,C,36,hard,low,3,6
524,3,4,126,BDF,0.73,36,47,44,F,44,easy,high,3,4
525,3,4,127,ACE,0.96,31,32,55,E,55,easy,low,3,3
526,3,4,128,ABC,0.72,33,32,38,C,38,hard,low,3,3
527,3,4,129,ACE,1.101,30,38,47,E,47,easy,low,3,4
528,3,4,130,ABC,0.58,33,33,47,C,47,hard,low,3,2
529,3,4,131,BDF,0.585,36,34,60,F,60,easy,high,3,2
530,3,4,132,DEF,0.926,45,58,55,F,55,hard,high,3,3
531,3,4,133,ABC,0.613,35,28,37,C,37,hard,low,3,2
532,3,4,134,DEF,1.072,54,45,50,F,50,hard,high,3,3
533,3,4,135,ACE,1.835,24,26,46,E,46,easy,low,3,6
534,3,4,136,DEF,1.082,42,56,47,E,56,hard,high,2,4
535,3,4,137,ABC,2.14,30,42,38,C,38,hard,low,3,6
536,3,4,138,DEF,0.943,37,42,52,F,52,hard,high,3,3
537,3,4,139,BDF,0.894,41,42,47,F,47,easy,high,3,5
538,3,4,140,ACE,0.596,28,40,47,C,40,easy,low,2,1
539,3,4,141,DEF,0.796,36,52,44,F,44,hard,high,3,2
540,3,4,142,ABC,0.544,22,38,40,C,40,hard,low,3,1
541,3,4,143,DEF,0.838,48,39,55,F,55,hard,high,3,2
542,3,4,144,ACE,0.916,23,35,41,E,41,easy,low,3,3
543,3,4,145,ABC,0.64,32,28,38,C,38,hard,low,3,2
544,3,4,146,BDF,0.613,31,42,53,F,53,easy,high,3,2
545,3,4,147,ABC,0.635,24,31,43,C,43,hard,low,3,2
546,3,4,148,ACE,0.894,36,29,48,E,48,easy,low,3,3
547,3,4,149,BDF,0.653,37,50,54,F,54,easy,high,3,3
548,3,4,150,ABC,0.578,27,32,33,C,33,hard,low,3,2
549,3,4,151,BDF,0.551,34,40,53,F,53,easy,high,3,1
550,3,4,152,DEF,1.254,39,51,49,F,49,hard,high,3,5
551,3,4,153,ABC,1.013,27,35,42,C,42,hard,low,3,5
552,3,4,154,BDF,0.675,40,37,45,F,45,easy,high,3,3
553,3,4,155,DEF,1.135,51,47,50,F,50,hard,high,3,4
554,3,4,156,ABC,0.765,30,35,39,C,39,hard,low,3,3
555,3,4,157,DEF,1.468,48,41,47,F,47,hard,high,3,5
556,3,4,158,BDF,0.616,36,38,51,F,51,easy,high,3,2
557,3,4,159,DEF,1.551,43,42,51,F,51,hard,high,3,5
558,3,4,160,ACE,0.988,29,33,52,E,52,easy,low,3,3
559,3,4,161,BDF,0.616,32,46,52,F,52,easy,high,3,2
560,3,4,162,DEF,1.089,45,38,53,E,38,hard,high,2,4
561,3,4,163,ABC,0.715,30,43,40,C,40,hard,low,3,3
562,3,4,164,ACE,1.197,38,36,44,E,44,easy,low,3,4
563,3,4,165,BDF,0.53,34,41,49,F,49,easy,high,3,1
564,3,4,166,DEF,1.444,38,46,46,F,46,hard,high,3,5
565,3,4,167,BDF,0.662,35,44,55,F,55,easy,high,3,3
566,3,4,168,ABC,0.603,28,38,45,C,45,hard,low,3,2
567,3,4,169,ACE,1.218,27,42,52,E,52,easy,low,3,4
568,3,4,170,DEF,0.751,43,43,47,F,47,hard,high,3,2
569,3,4,171,ABC,0.685,22,29,32,C,32,hard,low,3,2
570,3,4,172,BDF,0.578,31,37,48,F,48,easy,high,3,2
571,3,4,173,DEF,1.246,37,46,46,F,46,hard,high,3,4
572,3,4,174,ACE,1.043,36,41,38,E,38,easy,low,3,4
573,3,4,175,BDF,0.886,34,40,49,F,49,easy,high,3,5
574,3,4,176,DEF,0.588,47,42,41,F,41,hard,high,3,1
575,3,4,177,ABC,0.826,30,35,41,C,41,hard,low,3,4
576,3,4,178,BDF,0.592,30,42,49,F,49,easy,high,3,2
577,3,4,179,ACE,1.273,35,36,47,E,47,easy,low,3,5
578,3,4,180,ABC,0.992,32,33,39,C,39,hard,low,3,5
579,3,4,181,DEF,1.176,45,40,54,E,40,hard,high,2,4
580,3,4,182,BDF,0.71,46,44,53,F,53,easy,high,3,3
581,3,4,183,ABC,0.582,34,35,36,C,36,hard,low,3,2
582,3,4,184,DEF,1.122,42,46,45,F,45,hard,high,3,4
583,3,4,185,BDF,0.723,35,41,45,F,45,easy,high,3,4
584,3,4,186,DEF,1.234,34,48,53,F,53,hard,high,3,4
585,3,4,187,ABC,0.686,31,34,38,C,38,hard,low,3,2
586,3,4,188,BDF,0.539,31,39,48,F,48,easy,high,3,1
587,3,4,189,ACE,0.853,32,34,49,E,49,easy,low,3,3
588,3,4,190,ABC,0.996,33,41,36,C,36,hard,low,3,5
589,3,4,191,BDF,0.643,30,30,52,F,52,easy,high,3,3
590,3,4,192,ABC,0.596,29,32,41,C,41,hard,low,3,2
591,3,4,193,BDF,0.47,29,40,59,F,59,easy,high,3,1
592,3,4,194,ABC,0.771,18,22,44,C,44,hard,low,3,3
593,3,4,195,BDF,0.586,37,46,51,F,51,easy,high,3,2
594,3,4,196,DEF,1.224,46,43,48,F,48,hard,high,3,4
595,3,4,197,ABC,0.54,32,33,37,C,37,hard,low,3,1
596,3,4,198,BDF,0.755,37,35,49,F,49,easy,high,3,4
597,3,4,199,ABC,0.521,26,31,32,C,32,hard,low,3,1
598,3,4,200,BDF,0.784,32,43,50,F,50,easy,high,3,4
599,4,4,1,BDF,0.958,28,44,53,D,44,easy,high,2,4
600,4,4,2,ACE,1.192,33,33,51,E,51,easy,low,3,5
601,4,4,3,ABC,0.786,26,30,37,A,26,hard,low,1,2
602,4,4,4,ACE,0.806,29,34,56,E,56,easy,low,3,3
603,4,4,5,DEF,0.944,41,44,49,E,44,hard,high,2,4
604,4,4,6,ABC,1.244,24,31,40,B,31,hard,low,2,4
605,4,4,7,ACE,1.167,24,35,42,E,42,easy,low,3,4
606,4,4,8,DEF,0.563,41,47,56,E,47,hard,high,2,1
607,4,4,9,ABC,1.416,30,36,37,C,37,hard,low,3,4
608,4,4,10,BDF,1.411,38,44,44,D,44,easy,high,2,5
609,4,4,11,DEF,0.819,40,42,38,E,42,hard,high,2,3
610,4,4,12,ABC,1.9,31,37,40,B,37,hard,low,2,5
611,4,4,13,BDF,0.806,34,38,46,D,38,easy,high,2,3
612,4,4,14,DEF,0.717,36,49,56,D,36,hard,high,1,2
613,4,4,15,ACE,0.571,31,35,42,E,42,easy,low,3,1
614,4,4,16,BDF,1.131,36,33,49,D,33,easy,high,2,5
615,4,4,17,ABC,1.384,31,32,39,C,39,hard,low,3,4
616,4,4,18,ACE,0.739,39,42,53,E,53,easy,low,3,2
617,4,4,19,DEF,0.604,47,39,54,E,39,hard,high,2,2
618,4,4,20,ABC,1.224,28,40,45,B,40,hard,low,2,3
619,4,4,21,ACE,1.133,31,38,55,E,55,easy,low,3,4
620,4,4,22,BDF,1.162,40,36,43,F,43,easy,high,3,5
621,4,4,23,ACE,0.849,40,32,46,C,32,easy,low,2,3
622,4,4,24,ABC,0.837,29,38,39,C,39,hard,low,3,2
623,4,4,25,DEF,0.778,34,47,53,E,47,hard,high,2,2
624,4,4,26,ABC,1.109,27,38,41,C,41,hard,low,3,3
625,4,4,27,BDF,1.073,43,45,54,F,54,easy,high,3,4
626,4,4,28,ACE,0.78,23,40,41,E,41,easy,low,3,2
627,4,4,29,ABC,1.267,31,34,30,C,30,hard,low,3,4
628,4,4,30,ACE,0.663,35,39,40,E,40,easy,low,3,2
629,4,4,31,BDF,0.687,37,38,56,F,56,easy,high,3,3
630,4,4,32,DEF,0.74,40,42,52,E,42,hard,high,2,2
631,4,4,33,ABC,1.484,28,29,34,C,34,hard,low,3,5
632,4,4,34,DEF,0.762,37,46,48,F,48,hard,high,3,2
633,4,4,35,ABC,0.905,24,30,36,C,36,hard,low,3,2
634,4,4,36,DEF,1.409,37,50,42,F,42,hard,high,3,5
635,4,4,37,ACE,0.755,33,43,52,E,52,easy,low,3,2
636,4,4,38,BDF,0.889,32,50,59,F,59,easy,high,3,4
637,4,4,39,ABC,1.098,25,33,33,C,33,hard,low,3,3
638,4,4,40,ACE,0.87,22,36,41,E,41,easy,low,3,3
639,4,4,41,DEF,0.989,48,39,50,F,50,hard,high,3,4
640,4,4,42,BDF,0.619,34,47,45,F,45,easy,high,3,2
641,4,4,43,ACE,0.799,36,33,50,E,50,easy,low,3,2
642,4,4,44,ABC,1.199,25,25,39,C,39,hard,low,3,3
643,4,4,45,BDF,1.307,35,42,55,D,42,easy,high,2,5
644,4,4,46,DEF,0.851,44,47,47,E,47,hard,high,2,3
645,4,4,47,ABC,1.087,32,38,44,A,32,hard,low,1,2
646,4,4,48,ACE,0.643,31,35,49,E,49,easy,low,3,1
647,4,4,49,ABC,1.307,31,35,31,C,31,hard,low,3,4
648,4,4,50,BDF,0.638,27,40,44,F,44,easy,high,3,2
649,4,4,51,DEF,0.795,36,52,47,D,36,hard,high,1,3
650,4,4,52,ABC,0.921,27,33,42,A,27,hard,low,1,2
651,4,4,53,BDF,0.893,36,40,57,F,57,easy,high,3,4
652,4,4,54,ACE,0.945,38,36,48,E,48,easy,low,3,3
653,4,4,55,BDF,0.87,41,37,46,F,46,easy,high,3,4
654,4,4,56,ABC,1.824,22,46,41,B,46,hard,low,2,5
655,4,4,57,ACE,1.785,25,43,45,E,45,easy,low,3,6
656,4,4,58,BDF,0.65,39,30,56,F,56,easy,high,3,2
657,4,4,59,ABC,1.101,28,32,34,B,32,hard,low,2,3
658,4,4,60,ACE,0.567,34,37,46,E,46,easy,low,3,1
659,4,4,61,BDF,0.782,37,37,50,F,50,easy,high,3,3
660,4,4,62,ABC,1.582,35,34,42,C,42,hard,low,3,5
661,4,4,63,BDF,0.75,31,39,44,F,44,easy,high,3,3
662,4,4,64,ABC,1.421,30,31,30,C,30,hard,low,3,4
663,4,4,65,DEF,0.984,49,44,49,F,49,hard,high,3,4
664,4,4,66,BDF,0.606,33,41,40,F,40,easy,high,3,2
665,4,4,67,ABC,1.007,33,40,31,C,31,hard,low,3,2
666,4,4,68,DEF,0.911,40,46,52,F,52,hard,high,3,3
667,4,4,69,ABC,1.334,32,30,45,C,45,hard,low,3,4
668,4,4,70,DEF,1.567,47,48,42,F,42,hard,high,3,6
669,4,4,71,BDF,0.684,29,46,41,F,41,easy,high,3,2
670,4,4,72,DEF,0.977,43,48,43,E,48,hard,high,2,4
671,4,4,73,ABC,1.942,36,22,45,C,45,hard,low,3,6
672,4,4,74,BDF,0.607,26,35,52,F,52,easy,high,3,2
673,4,4,75,ABC,1.164,26,31,32,C,32,hard,low,3,3
674,4,4,76,ACE,1.629,28,32,53,C,32,easy,low,2,5
675,4,4,77,ABC,1.343,21,38,36,C,36,hard,low,3,4
676,4,4,78,ACE,1.378,30,34,52,E,52,easy,low,3,5
677,4,4,79,BDF,1.447,31,42,52,F,52,easy,high,3,6
678,4,4,80,DEF,0.773,52,49,46,F,46,hard,high,3,2
679,4,4,81,ACE,1.022,30,26,54,E,54,easy,low,3,3
680,4,4,82,DEF,1.604,43,51,48,F,48,hard,high,3,6
681,4,4,83,ACE,1.147,20,37,40,E,40,easy,low,3,4
682,4,4,84,DEF,1.478,44,50,54,F,54,hard,high,3,6
683,4,4,85,ACE,1.656,26,39,41,E,41,easy,low,3,6
684,4,4,86,BDF,0.844,43,33,58,F,58,easy,high,3,3
685,4,4,87,DEF,1.231,45,50,47,F,47,hard,high,3,5
686,4,4,88,ACE,0.781,32,44,50,E,50,easy,low,3,2
687,4,4,89,ABC,1.125,34,33,44,C,44,hard,low,3,3
688,4,4,90,ACE,0.767,38,37,46,E,46,easy,low,3,2
689,4,4,91,DEF,0.918,39,45,54,F,54,hard,high,3,3
690,4,4,92,ACE,1.701,33,38,46,E,46,easy,low,3,6
691,4,4,93,BDF,0.976,33,46,49,F,49,easy,high,3,4
692,4,4,94,ABC,1.14,34,35,37,C,37,hard,low,3,3
693,4,4,95,BDF,1.447,26,42,60,F,60,easy,high,3,6
694,4,4,96,ACE,1.938,29,41,42,E,42,easy,low,3,6
695,4,4,97,ABC,1.111,29,36,36,C,36,hard,low,3,3
696,4,4,98,DEF,1.743,38,49,51,F,51,hard,high,3,6
697,4,4,99,BDF,1.665,31,39,43,F,43,easy,high,3,6
698,4,4,100,ACE,1.184,33,39,43,C,39,easy,low,2,4
699,4,4,101,BDF,1.165,37,43,46,F,46,easy,high,3,5
700,4,4,102,ACE,0.671,34,38,44,E,44,easy,low,3,2
701,4,4,103,BDF,1.116,34,39,55,F,55,easy,high,3,5
702,4,4,104,ACE,2.17,29,40,44,E,44,easy,low,3,6
703,4,4,105,DEF,1.173,44,37,52,F,52,hard,high,3,5
704,4,4,106,ACE,2.113,35,36,43,E,43,easy,low,3,6
705,4,4,107,BDF,1.496,32,39,49,F,49,easy,high,3,6
706,4,4,108,DEF,1.13,48,48,51,F,51,hard,high,3,5
707,4,4,109,ABC,1.97,32,28,37,C,37,hard,low,3,6
708,4,4,110,ACE,1.163,21,36,47,E,47,easy,low,3,4
709,4,4,111,DEF,1.152,51,46,46,F,46,hard,high,3,5
710,4,4,112,ABC,1.962,34,39,41,C,41,hard,low,3,6
711,4,4,113,ACE,1.154,37,44,43,E,43,easy,low,3,4
712,4,4,114,DEF,1.426,45,42,59,F,59,hard,high,3,6
713,4,4,115,ACE,1.497,24,37,49,E,49,easy,low,3,5
714,4,4,116,BDF,1.702,39,43,45,F,45,easy,high,3,6
715,4,4,117,DEF,1.32,50,45,49,E,45,hard,high,2,5
716,4,4,118,ACE,1.076,29,28,55,E,55,easy,low,3,3
717,4,4,119,BDF,1.064,39,32,57,F,57,easy,high,3,4
718,4,4,120,ABC,1.011,29,24,40,C,40,hard,low,3,2
719,4,4,121,DEF,0.785,49,44,48,F,48,hard,high,3,3
720,4,4,122,ABC,1.548,27,34,33,B,34,hard,low,2,5
721,4,4,123,BDF,0.779,27,46,48,F,48,easy,high,3,3
722,4,4,124,ACE,0.657,33,31,34,E,34,easy,low,3,2
723,4,4,125,DEF,0.908,34,49,45,F,45,hard,high,3,3
724,4,4,126,BDF,0.865,30,48,55,F,55,easy,high,3,4
725,4,4,127,ACE,1.173,18,35,48,E,48,easy,low,3,4
726,4,4,128,DEF,1.217,42,38,58,F,58,hard,high,3,5
727,4,4,129,ABC,1.1,27,32,39,C,39,hard,low,3,3
728,4,4,130,ACE,1.081,32,41,51,E,51,easy,low,3,4
729,4,4,131,ABC,0.963,37,39,43,C,43,hard,low,3,2
730,4,4,132,DEF,1.256,42,53,51,F,51,hard,high,3,5
731,4,4,133,ACE,1.257,28,40,39,E,39,easy,low,3,5
732,4,4,134,BDF,0.886,42,45,48,F,48,easy,high,3,4
733,4,4,135,ABC,2.166,36,33,35,C,35,hard,low,3,6
734,4,4,136,ACE,1.153,23,29,41,E,41,easy,low,3,4
735,4,4,137,DEF,1.172,48,41,53,E,41,hard,high,2,5
736,4,4,138,ABC,1.342,29,29,34,C,34,hard,low,3,4
737,4,4,139,ACE,0.884,30,38,58,E,58,easy,low,3,3
738,4,4,140,BDF,2.607,38,41,49,F,49,easy,high,3,6
739,4,4,141,ABC,1.799,28,36,42,C,42,hard,low,3,5
740,4,4,142,BDF,0.638,31,39,54,F,54,easy,high,3,2
741,4,4,143,DEF,0.665,35,43,52,F,52,hard,high,3,2
742,4,4,144,BDF,1.149,37,43,46,F,46,easy,high,3,5
743,4,4,145,ACE,1.104,39,34,50,E,50,easy,low,3,4
744,4,4,146,DEF,1.064,46,47,47,F,47,hard,high,3,4
745,4,4,147,ACE,0.856,33,47,45,E,45,easy,low,3,3
746,4,4,148,ABC,1.057,30,35,38,C,38,hard,low,3,2
747,4,4,149,DEF,0.97,43,47,62,E,47,hard,high,2,4
748,4,4,150,ACE,1.337,36,48,40,E,40,easy,low,3,5
749,4,4,151,BDF,1.114,30,40,47,F,47,easy,high,3,5
750,4,4,152,DEF,0.871,37,47,50,E,47,hard,high,2,3
751,4,4,153,ABC,1.506,25,41,32,B,41,hard,low,2,5
752,4,4,154,DEF,1.172,43,48,55,F,55,hard,high,3,5
753,4,4,155,ABC,1.545,27,40,38,C,38,hard,low,3,5
754,4,4,156,BDF,0.544,37,45,48,F,48,easy,high,3,1
755,4,4,157,ABC,1.65,26,41,35,C,35,hard,low,3,5
756,4,4,158,DEF,0.94,42,54,52,F,52,hard,high,3,3
757,4,4,159,ACE,1.198,35,42,43,E,43,easy,low,3,5
758,4,4,160,BDF,0.893,33,38,53,F,53,easy,high,3,4
759,4,4,161,ACE,0.952,30,39,51,E,51,easy,low,3,3
760,4,4,162,DEF,0.94,38,43,44,F,44,hard,high,3,3
761,4,4,163,BDF,0.747,35,41,49,F,49,easy,high,3,3
762,4,4,164,ACE,1.61,28,35,45,E,45,easy,low,3,5
763,4,4,165,ABC,2.048,23,34,29,C,29,hard,low,3,6
764,4,4,166,BDF,1.338,29,41,45,F,45,easy,high,3,5
765,4,4,167,ABC,1.553,32,34,38,C,38,hard,low,3,5
766,4,4,168,DEF,0.969,38,45,50,F,50,hard,high,3,4
767,4,4,169,ABC,1.437,34,27,50,C,50,hard,low,3,5
768,4,4,170,DEF,1.471,36,37,51,F,51,hard,high,3,6
769,4,4,171,ABC,0.94,35,28,46,C,46,hard,low,3,2
770,4,4,172,DEF,1.104,47,43,47,F,47,hard,high,3,5
771,4,4,173,BDF,0.794,37,46,51,F,51,easy,high,3,3
772,4,4,174,ABC,1.19,37,36,40,C,40,hard,low,3,3
773,4,4,175,BDF,1.236,36,46,41,F,41,easy,high,3,5
774,4,4,176,DEF,0.803,44,51,50,F,50,hard,high,3,3
775,4,4,177,ABC,1.912,27,25,33,C,33,hard,low,3,6
776,4,4,178,DEF,0.997,43,36,55,F,55,hard,high,3,4
777,4,4,179,BDF,0.851,42,42,53,F,53,easy,high,3,4
778,4,4,180,ABC,1.419,26,32,43,C,43,hard,low,3,4
779,4,4,181,ACE,1.644,26,42,44,E,44,easy,low,3,5
780,4,4,182,BDF,0.645,35,45,50,F,50,easy,high,3,2
781,4,4,183,ACE,1.275,32,47,38,E,38,easy,low,3,5
782,4,4,184,BDF,1.544,35,39,54,F,54,easy,high,3,6
783,4,4,185,ABC,1.06,30,33,41,C,41,hard,low,3,2
784,4,4,186,DEF,1.316,51,44,53,F,53,hard,high,3,5
785,4,4,187,ACE,0.901,42,38,45,E,45,easy,low,3,3
786,4,4,188,BDF,1.047,28,54,51,F,51,easy,high,3,4
787,4,4,189,DEF,0.713,42,47,45,F,45,hard,high,3,2
788,4,4,190,ABC,0.708,31,44,46,C,46,hard,low,3,1
789,4,4,191,DEF,0.685,47,48,48,E,48,hard,high,2,2
790,4,4,192,BDF,0.775,29,45,50,F,50,easy,high,3,3
791,4,4,193,DEF,0.727,41,45,47,F,47,hard,high,3,2
792,4,4,194,BDF,0.769,32,44,51,F,51,easy,high,3,3
793,4,4,195,ACE,1.522,25,41,52,E,52,easy,low,3,5
794,4,4,196,DEF,1.08,41,49,50,F,50,hard,high,3,4
795,4,4,197,ACE,1.134,27,43,40,E,40,easy,low,3,4
796,4,4,198,BDF,1.169,30,49,51,F,51,easy,high,3,5
797,4,4,199,DEF,1.102,35,46,57,F,57,hard,high,3,4
798,4,4,200,BDF,1.318,35,40,53,F,53,easy,high,3,5
799,5,4,1,DEF,2.443,41,43,48,F,48,hard,high,3,5
800,5,4,2,BDF,1.257,31,41,44,F,44,easy,high,3,3
801,5,4,3,DEF,1.633,32,55,42,F,42,hard,high,3,4
802,5,4,4,ACE,1.191,28,42,47,E,47,easy,low,3,2
803,5,4,5,ABC,2.893,31,29,36,A,31,hard,low,1,5
804,5,4,7,BDF,2.247,34,54,53,F,53,easy,high,3,5
805,5,4,8,ACE,1.527,42,40,48,E,48,easy,low,3,3
806,5,4,9,DEF,1.661,41,42,53,F,53,hard,high,3,4
807,5,4,10,ABC,2.462,28,31,38,C,38,hard,low,3,5
808,5,4,11,DEF,3.064,39,44,59,E,44,hard,high,2,6
809,5,4,12,ABC,3.351,29,32,41,A,29,hard,low,1,6
810,5,4,13,ACE,1.104,27,36,54,C,36,easy,low,2,2
811,5,4,14,DEF,0.944,47,42,47,E,42,hard,high,2,2
812,5,4,15,ABC,3.132,30,35,45,C,45,hard,low,3,5
813,5,4,16,DEF,1.268,43,45,49,F,49,hard,high,3,3
814,5,4,17,ACE,1.511,35,41,45,E,45,easy,low,3,3
815,5,4,18,BDF,1.086,35,37,54,F,54,easy,high,3,3
816,5,4,19,ABC,1.766,36,32,29,C,29,hard,low,3,3
817,5,4,20,BDF,1.209,36,45,57,F,57,easy,high,3,3
818,5,4,21,ABC,1.651,27,32,47,C,47,hard,low,3,3
819,5,4,22,BDF,1.981,43,41,55,F,55,easy,high,3,5
820,5,4,23,ABC,3.146,40,36,40,C,40,hard,low,3,5
821,5,4,24,DEF,1.311,39,52,49,F,49,hard,high,3,3
822,5,4,25,ABC,1.845,33,40,42,C,42,hard,low,3,3
823,5,4,26,DEF,2.092,35,46,54,E,46,hard,high,2,5
824,5,4,27,ACE,1.623,29,38,46,E,46,easy,low,3,3
825,5,4,28,DEF,1.725,40,43,51,F,51,hard,high,3,4
826,5,4,29,ACE,2.14,28,26,44,E,44,easy,low,3,4
827,5,4,30,DEF,2.209,49,42,43,E,42,hard,high,2,5
828,5,4,31,ABC,2.396,30,33,45,C,45,hard,low,3,4
829,5,4,32,ACE,2.495,26,36,42,E,42,easy,low,3,5
830,5,4,33,BDF,2.013,37,43,44,F,44,easy,high,3,5
831,5,4,34,ACE,2.411,32,39,44,C,39,easy,low,2,5
832,5,4,35,BDF,2.32,43,44,43,D,44,easy,high,2,5
833,5,4,36,ABC,1.359,32,41,40,C,40,hard,low,3,2
834,5,4,37,ACE,1.623,35,50,47,E,47,easy,low,3,3
835,5,4,38,ABC,2.427,25,37,41,C,41,hard,low,3,5
836,5,4,39,ACE,2.555,32,33,41,E,41,easy,low,3,5
837,5,4,40,BDF,2.572,36,52,48,F,48,easy,high,3,5
838,5,4,41,ACE,1.799,34,38,51,E,51,easy,low,3,4
839,5,4,42,DEF,0.692,36,47,56,E,47,hard,high,2,1
840,5,4,43,BDF,1.321,40,39,45,F,45,easy,high,3,4
841,5,4,44,DEF,1.126,39,52,53,F,53,hard,high,3,3
842,5,4,45,ABC,2.524,21,41,35,C,35,hard,low,3,5
843,5,4,46,DEF,1.119,42,48,55,F,55,hard,high,3,3
844,5,4,47,BDF,0.9,31,47,45,F,45,easy,high,3,2
845,5,4,48,ABC,3.142,34,33,42,C,42,hard,low,3,5
846,5,4,49,BDF,1.689,38,45,51,D,45,easy,high,2,4
847,5,4,50,DEF,1.107,47,58,53,E,58,hard,high,2,2
848,5,4,51,BDF,2.205,39,39,54,F,54,easy,high,3,5
849,5,4,52,ACE,1.277,29,45,43,E,43,easy,low,3,2
850,5,4,53,BDF,5.037,22,48,48,D,48,easy,high,2,6
851,5,4,54,ABC,1.813,18,44,37,C,37,hard,low,3,3
852,5,4,55,DEF,2.552,38,46,48,F,48,hard,high,3,5
853,5,4,56,ACE,3.448,24,33,43,E,43,easy,low,3,6
854,5,4,57,ABC,2.433,32,30,42,B,30,hard,low,2,5
855,5,4,58,DEF,0.893,38,50,56,E,50,hard,high,2,2
856,5,4,59,ACE,1.155,27,43,39,C,43,easy,low,2,2
857,5,4,60,BDF,2.704,38,46,55,F,55,easy,high,3,6
858,5,4,61,ACE,1.521,27,37,50,E,50,easy,low,3,3
859,5,4,62,DEF,2.601,40,46,53,F,53,hard,high,3,5
860,5,4,63,ACE,2.528,28,39,54,E,54,easy,low,3,5
861,5,4,64,ABC,2.007,30,38,43,C,43,hard,low,3,4
862,5,4,65,BDF,3.604,34,44,48,D,44,easy,high,2,6
863,5,4,66,ABC,2.009,20,32,41,C,41,hard,low,3,4
864,5,4,67,BDF,1.431,28,40,43,F,43,easy,high,3,4
865,5,4,68,DEF,2.843,43,37,41,E,37,hard,high,2,6
866,5,4,69,ABC,1.093,33,29,47,C,47,hard,low,3,1
867,5,4,70,DEF,2.473,42,45,58,F,58,hard,high,3,5
868,5,4,71,BDF,1.598,35,46,49,F,49,easy,high,3,4
869,5,4,72,ACE,2.181,29,38,52,E,52,easy,low,3,5
870,5,4,73,DEF,2.34,37,53,60,E,53,hard,high,2,5
871,5,4,74,ACE,3.819,29,42,50,C,42,easy,low,2,6
872,5,4,75,BDF,2.144,28,47,51,F,51,easy,high,3,5
873,5,4,76,DEF,3.148,37,41,46,E,41,hard,high,2,6
874,5,4,77,ABC,1.548,37,31,38,C,38,hard,low,3,3
875,5,4,78,ACE,2.558,28,41,42,E,42,easy,low,3,5
876,5,4,79,ABC,1.617,38,33,37,C,37,hard,low,3,3
877,5,4,80,BDF,1.22,35,43,58,F,58,easy,high,3,3
878,5,4,81,ACE,2.102,25,32,45,E,45,easy,low,3,4
879,5,4,82,BDF,1.843,31,45,38,F,38,easy,high,3,4
880,5,4,83,DEF,1.304,36,36,59,F,59,hard,high,3,3
881,5,4,84,BDF,0.982,30,30,53,F,53,easy,high,3,3
882,5,4,85,ACE,0.836,23,43,47,E,47,easy,low,3,1
883,5,4,86,BDF,1.645,30,43,55,F,55,easy,high,3,4
884,5,4,87,DEF,1.281,38,50,46,F,46,hard,high,3,3
885,5,4,88,ABC,0.989,34,28,38,C,38,hard,low,3,1
886,5,4,89,BDF,0.988,35,42,51,F,51,easy,high,3,3
887,5,4,90,DEF,1.255,48,47,44,F,44,hard,high,3,3
888,5,4,91,ABC,1.251,31,39,35,C,35,hard,low,3,2
889,5,4,92,ACE,1.478,30,29,45,E,45,easy,low,3,2
890,5,4,93,BDF,0.74,37,45,54,F,54,easy,high,3,2
891,5,4,94,ACE,1.954,32,33,53,E,53,easy,low,3,4
892,5,4,95,DEF,1.633,38,46,49,F,49,hard,high,3,4
893,5,4,96,ABC,1.648,26,27,31,C,31,hard,low,3,3
894,5,4,97,ACE,2.118,34,34,41,E,41,easy,low,3,4
895,5,4,98,DEF,2.673,44,49,54,F,54,hard,high,3,5
896,5,4,99,BDF,2.333,25,43,52,F,52,easy,high,3,5
897,5,4,100,ABC,4.106,26,34,36,B,34,hard,low,2,6
898,5,4,101,BDF,0.959,35,44,48,F,48,easy,high,3,3
899,5,4,102,DEF,1.815,42,49,47,F,47,hard,high,3,4
900,5,4,103,ABC,1.392,25,37,35,C,35,hard,low,3,2
901,5,4,104,DEF,0.882,35,42,50,F,50,hard,high,3,2
902,5,4,105,ACE,1.344,35,41,44,E,44,easy,low,3,2
903,5,4,106,DEF,2.4,39,39,51,E,39,hard,high,2,5
904,5,4,107,ABC,1.299,27,29,33,C,33,hard,low,3,2
905,5,4,108,DEF,0.948,42,47,52,F,52,hard,high,3,2
906,5,4,109,BDF,1.311,34,34,56,F,56,easy,high,3,4
907,5,4,110,DEF,1.481,44,40,46,F,46,hard,high,3,4
908,5,4,111,ABC,1.77,39,37,37,C,37,hard,low,3,3
909,5,4,112,ACE,2.712,33,28,52,E,52,easy,low,3,5
910,5,4,113,DEF,1.014,33,49,48,F,48,hard,high,3,2
911,5,4,114,ACE,1.535,36,36,53,E,53,easy,low,3,3
912,5,4,115,BDF,0.736,33,45,47,F,47,easy,high,3,2
913,5,4,116,DEF,2.053,34,49,49,F,49,hard,high,3,5
914,5,4,117,BDF,1.184,34,38,50,F,50,easy,high,3,3
915,5,4,118,ACE,1.031,22,31,48,E,48,easy,low,3,2
916,5,4,119,BDF,1.524,31,41,44,F,44,easy,high,3,4
917,5,4,120,ABC,1.697,27,39,37,C,37,hard,low,3,3
918,5,4,121,ACE,0.832,30,34,44,E,44,easy,low,3,1
919,5,4,122,BDF,1.032,27,42,50,F,50,easy,high,3,3
920,5,4,123,ACE,0.86,31,44,43,E,43,easy,low,3,1
921,5,4,124,DEF,0.748,46,38,46,E,38,hard,high,2,1
922,5,4,125,ABC,2.374,30,36,34,C,34,hard,low,3,4
923,5,4,126,BDF,0.789,46,43,56,F,56,easy,high,3,2
924,5,4,127,ACE,0.806,28,39,46,E,46,easy,low,3,1
925,5,4,128,DEF,1.051,37,41,51,E,41,hard,high,2,2
926,5,4,129,BDF,0.901,34,46,45,F,45,easy,high,3,2
927,5,4,130,ABC,2.484,25,25,32,C,32,hard,low,3,5
928,5,4,131,BDF,0.936,39,38,47,F,47,easy,high,3,2
929,5,4,132,ABC,1.478,26,32,44,C,44,hard,low,3,3
930,5,4,133,ACE,2.009,26,37,45,E,45,easy,low,3,4
931,5,4,134,BDF,0.847,36,40,52,F,52,easy,high,3,2
932,5,4,135,ACE,1.512,31,39,47,E,47,easy,low,3,3
933,5,4,136,DEF,0.932,37,51,50,F,50,hard,high,3,2
934,5,4,137,ACE,3.484,29,38,49,E,49,easy,low,3,6
935,5,4,138,BDF,0.954,35,50,40,F,40,easy,high,3,2
936,5,4,139,ABC,1.348,30,41,43,C,43,hard,low,3,2
937,5,4,140,BDF,0.89,33,33,52,F,52,easy,high,3,2
938,5,4,141,ACE,1.028,37,40,47,E,47,easy,low,3,2
939,5,4,142,BDF,0.631,26,51,53,F,53,easy,high,3,1
940,5,4,143,ABC,1.41,34,38,35,C,35,hard,low,3,2
941,5,4,144,DEF,1.55,40,45,51,F,51,hard,high,3,4
942,5,4,145,ACE,1.704,29,32,50,E,50,easy,low,3,3
943,5,4,146,ABC,1.269,31,39,35,C,35,hard,low,3,2
944,5,4,147,BDF,0.921,32,45,52,F,52,easy,high,3,2
945,5,4,148,ACE,2.133,24,40,43,E,43,easy,low,3,4
946,5,4,149,BDF,0.783,28,42,50,F,50,easy,high,3,2
947,5,4,150,ABC,2.669,31,36,39,C,39,hard,low,3,5
948,5,4,151,DEF,0.679,49,40,46,E,40,hard,high,2,1
949,5,4,152,BDF,0.613,33,47,47,F,47,easy,high,3,1
950,5,4,153,DEF,1.081,35,43,45,F,45,hard,high,3,2
951,5,4,154,ACE,1.715,33,36,48,E,48,easy,low,3,3
952,5,4,155,ABC,1.984,38,29,37,C,37,hard,low,3,4
953,5,4,156,ACE,2.394,25,36,51,E,51,easy,low,3,5
954,5,4,157,BDF,0.647,33,41,50,F,50,easy,high,3,1
955,5,4,158,ACE,1.497,34,48,34,E,34,easy,low,3,3
956,5,4,159,DEF,1.329,44,44,52,F,52,hard,high,3,3
957,5,4,160,ABC,1.099,33,27,44,C,44,hard,low,3,1
958,5,4,161,ACE,1.781,24,33,56,E,56,easy,low,3,4
959,5,4,162,DEF,0.836,41,37,41,F,41,hard,high,3,1
960,5,4,163,BDF,0.576,42,46,49,F,49,easy,high,3,1
961,5,4,164,ACE,1.507,35,34,44,E,44,easy,low,3,3
962,5,4,165,ABC,1.247,35,30,40,C,40,hard,low,3,2
963,5,4,166,DEF,0.606,45,39,42,E,39,hard,high,2,1
964,5,4,167,ABC,1.989,29,33,39,C,39,hard,low,3,4
965,5,4,168,BDF,2.393,40,40,55,F,55,easy,high,3,5
966,5,4,169,ABC,1.155,36,29,43,C,43,hard,low,3,1
967,5,4,170,DEF,1.664,40,48,57,F,57,hard,high,3,4
968,5,4,171,ACE,4.128,39,46,55,E,55,easy,low,3,6
969,5,4,172,DEF,1.318,43,41,57,F,57,hard,high,3,3
970,5,4,173,ACE,1.799,32,34,50,E,50,easy,low,3,4
971,5,4,174,ABC,1.61,36,40,46,C,46,hard,low,3,3
972,5,4,175,BDF,0.71,35,48,46,F,46,easy,high,3,1
973,5,4,176,ABC,1.99,28,38,30,C,30,hard,low,3,4
974,5,4,177,ACE,1.479,24,39,40,E,40,easy,low,3,2
975,5,4,178,ABC,1.369,23,26,41,C,41,hard,low,3,2
976,5,4,179,BDF,0.719,34,39,47,F,47,easy,high,3,1
977,5,4,180,DEF,0.867,36,48,50,F,50,hard,high,3,2
978,5,4,181,BDF,0.839,37,50,45,F,45,easy,high,3,2
979,5,4,182,DEF,1.205,44,48,52,F,52,hard,high,3,3
980,5,4,183,BDF,2.527,31,46,50,F,50,easy,high,3,5
981,5,4,184,DEF,1.178,49,51,54,F,54,hard,high,3,3
982,5,4,185,ABC,1.748,31,32,34,C,34,hard,low,3,3
983,5,4,186,DEF,1.408,51,46,47,F,47,hard,high,3,4
984,5,4,187,ABC,1.042,31,37,38,C,38,hard,low,3,1
985,5,4,188,BDF,0.64,38,42,49,F,49,easy,high,3,1
986,5,4,189,ACE,0.929,23,44,45,E,45,easy,low,3,1
987,5,4,190,ABC,1.777,37,34,37,C,37,hard,low,3,3
988,5,4,191,DEF,1.027,48,40,51,F,51,hard,high,3,2
989,5,4,192,ACE,1.121,21,39,46,E,46,easy,low,3,2
990,5,4,193,BDF,1.091,36,36,62,F,62,easy,high,3,3
991,5,4,194,ABC,1.348,26,24,32,C,32,hard,low,3,2
992,5,4,195,ACE,0.888,33,35,49,E,49,easy,low,3,1
993,5,4,196,ABC,1.372,30,30,42,C,42,hard,low,3,2
994,5,4,197,DEF,0.671,41,38,49,F,49,hard,high,3,1
995,5,4,198,ABC,1.042,32,42,31,C,31,hard,low,3,1
996,5,4,199,ACE,1.084,33,40,51,E,51,easy,low,3,2
997,5,4,200,ABC,0.979,22,30,35,C,35,hard,low,3,1
998,6,4,1,ABC,1.888,35,34,36,C,36,hard,low,3,6
999,6,4,2,ACE,1.402,28,34,45,C,34,easy,low,2,4
1000,6,4,3,ABC,1.699,25,32,41,C,41,hard,low,3,5
1001,6,4,4,BDF,2.458,30,43,48,F,48,easy,high,3,6
1002,6,4,5,ACE,1.529,31,37,43,E,43,easy,low,3,5
1003,6,4,6,BDF,1.586,35,36,55,F,55,easy,high,3,6
1004,6,4,7,ACE,1.472,33,31,44,E,44,easy,low,3,5
1005,6,4,8,ABC,1.613,23,29,44,C,44,hard,low,3,5
1006,6,4,9,DEF,1.157,42,39,46,E,39,hard,high,2,5
1007,6,4,10,ACE,1.697,36,42,42,C,42,easy,low,2,5
1008,6,4,11,BDF,2.241,31,30,53,D,30,easy,high,2,6
1009,6,4,12,ABC,1.318,26,30,42,C,42,hard,low,3,4
1010,6,4,13,ACE,0.966,28,39,45,E,45,easy,low,3,2
1011,6,4,14,ABC,1.173,29,27,40,C,40,hard,low,3,3
1012,6,4,15,BDF,1.604,27,41,46,F,46,easy,high,3,6
1013,6,4,16,DEF,2.266,36,48,49,F,49,hard,high,3,6
1014,6,4,17,BDF,1.357,42,49,52,F,52,easy,high,3,5
1015,6,4,18,DEF,1.402,41,40,51,F,51,hard,high,3,6
1016,6,4,19,BDF,0.744,34,34,43,F,43,easy,high,3,3
1017,6,4,20,ABC,1.128,34,39,36,C,36,hard,low,3,3
1018,6,4,21,DEF,0.784,43,41,49,F,49,hard,high,3,4
1019,6,4,22,ACE,1.481,27,39,40,C,39,easy,low,2,5
1020,6,4,23,BDF,0.731,33,43,56,F,56,easy,high,3,3
1021,6,4,24,ACE,2.771,32,37,47,E,47,easy,low,3,6
1022,6,4,25,ABC,1.44,32,28,41,C,41,hard,low,3,4
1023,6,4,26,ACE,2.559,30,35,52,E,52,easy,low,3,6
1024,6,4,27,DEF,1.266,44,48,54,F,54,hard,high,3,6
1025,6,4,28,BDF,1.149,41,39,45,F,45,easy,high,3,5
1026,6,4,29,ABC,1.643,35,36,40,C,40,hard,low,3,5
1027,6,4,30,BDF,1.006,40,42,46,F,46,easy,high,3,5
1028,6,4,31,DEF,1.133,41,43,62,F,62,hard,high,3,5
1029,6,4,32,BDF,0.995,38,51,44,F,44,easy,high,3,5
1030,6,4,33,ACE,1.927,42,37,48,E,48,easy,low,3,6
1031,6,4,34,ABC,1.257,28,33,38,C,38,hard,low,3,4
1032,6,4,35,DEF,0.881,52,44,52,F,52,hard,high,3,5
1033,6,4,36,ABC,1.139,34,28,35,C,35,hard,low,3,3
1034,6,4,37,BDF,1.217,33,35,51,F,51,easy,high,3,5
1035,6,4,38,ACE,1.552,33,31,51,E,51,easy,low,3,5
1036,6,4,39,ABC,1.885,29,43,28,C,28,hard,low,3,6
1037,6,4,40,ACE,1.65,27,37,50,E,50,easy,low,3,5
1038,6,4,41,BDF,1.229,29,38,56,F,56,easy,high,3,5
1039,6,4,42,ABC,1.688,27,36,33,C,33,hard,low,3,5
1040,6,4,43,ACE,1.645,28,36,47,E,47,easy,low,3,5
1041,6,4,44,BDF,1.868,24,40,57,F,57,easy,high,3,6
1042,6,4,45,ACE,1.455,25,34,55,E,55,easy,low,3,4
1043,6,4,46,BDF,0.824,41,39,52,F,52,easy,high,3,4
1044,6,4,47,ACE,1.859,30,34,47,E,47,easy,low,3,6
1045,6,4,48,BDF,0.718,31,38,49,F,49,easy,high,3,3
1046,6,4,49,ABC,2.161,24,37,32,B,37,hard,low,2,6
1047,6,4,50,BDF,2.223,33,48,47,F,47,easy,high,3,6
1048,6,4,51,ABC,1.377,26,28,35,B,28,hard,low,2,4
1049,6,4,52,BDF,1.045,39,40,48,F,48,easy,high,3,5
1050,6,4,53,ACE,1.155,27,39,38,E,38,easy,low,3,3
1051,6,4,54,ABC,1.776,37,36,41,B,36,hard,low,2,5
1052,6,4,55,BDF,0.981,37,45,47,F,47,easy,high,3,4
1053,6,4,56,DEF,1.201,47,40,50,F,50,hard,high,3,5
1054,6,4,57,ABC,1.241,37,33,38,C,38,hard,low,3,4
1055,6,4,58,ACE,2.594,32,43,50,E,50,easy,low,3,6
1056,6,4,59,DEF,0.613,44,49,59,F,59,hard,high,3,2
1057,6,4,60,BDF,0.557,37,42,53,F,53,easy,high,3,2
1058,6,4,61,DEF,0.594,43,54,51,F,51,hard,high,3,2
1059,6,4,62,BDF,0.519,39,39,52,F,52,easy,high,3,2
1060,6,4,63,ABC,1.76,31,37,29,B,37,hard,low,2,5
1061,6,4,64,ACE,1.612,30,39,46,C,39,easy,low,2,5
1062,6,4,65,DEF,0.774,42,50,48,F,48,hard,high,3,4
1063,6,4,66,ACE,1.557,36,35,45,E,45,easy,low,3,5
1064,6,4,67,BDF,1.367,34,47,51,F,51,easy,high,3,5
1065,6,4,68,DEF,0.847,40,40,52,F,52,hard,high,3,4
1066,6,4,69,ACE,2.284,25,44,49,E,49,easy,low,3,6
1067,6,4,70,DEF,0.744,46,47,53,F,53,hard,high,3,4
1068,6,4,71,BDF,0.64,36,33,45,F,45,easy,high,3,3
1069,6,4,72,ACE,1.471,35,42,55,E,55,easy,low,3,4
1070,6,4,73,ABC,1.209,34,43,31,C,31,hard,low,3,3
1071,6,4,74,BDF,0.747,28,46,51,F,51,easy,high,3,3
1072,6,4,75,ACE,1.115,36,35,47,E,47,easy,low,3,3
1073,6,4,76,ABC,1.287,29,29,33,C,33,hard,low,3,4
1074,6,4,77,BDF,0.694,32,42,50,F,50,easy,high,3,3
1075,6,4,78,DEF,0.745,36,47,48,F,48,hard,high,3,4
1076,6,4,79,BDF,0.509,34,43,48,F,48,easy,high,3,2
1077,6,4,80,ACE,1.194,23,38,38,E,38,easy,low,3,3
1078,6,4,81,DEF,1.287,37,49,38,F,38,hard,high,3,6
1079,6,4,82,BDF,0.597,34,38,49,F,49,easy,high,3,2
1080,6,4,83,DEF,0.468,40,42,42,F,42,hard,high,3,1
1081,6,4,84,ACE,1.017,22,36,44,E,44,easy,low,3,2
1082,6,4,85,DEF,0.525,38,42,53,E,42,hard,high,2,1
1083,6,4,86,ABC,0.536,29,41,35,A,29,hard,low,1,1
1084,6,4,87,DEF,0.616,43,54,53,F,53,hard,high,3,2
1085,6,4,88,BDF,0.526,35,41,50,F,50,easy,high,3,2
1086,6,4,89,DEF,0.558,37,50,41,F,41,hard,high,3,1
1087,6,4,90,ACE,0.906,31,37,50,E,50,easy,low,3,2
1088,6,4,91,DEF,0.748,42,43,44,F,44,hard,high,3,4
1089,6,4,92,ACE,1.173,26,29,45,E,45,easy,low,3,3
1090,6,4,93,ABC,1.87,32,38,43,C,43,hard,low,3,6
1091,6,4,94,DEF,0.558,39,46,48,F,48,hard,high,3,1
1092,6,4,95,BDF,0.798,35,45,40,F,40,easy,high,3,4
1093,6,4,96,ABC,1.074,31,40,30,C,30,hard,low,3,2
1094,6,4,97,ACE,1.55,32,37,39,E,39,easy,low,3,5
1095,6,4,98,BDF,0.473,38,54,54,F,54,easy,high,3,1
1096,6,4,99,ABC,1.19,34,25,43,C,43,hard,low,3,3
1097,6,4,100,ACE,0.859,34,40,43,E,43,easy,low,3,2
1098,6,4,101,ABC,0.965,29,34,39,C,39,hard,low,3,2
1099,6,4,102,DEF,0.683,47,44,50,F,50,hard,high,3,3
1100,6,4,103,ACE,1.112,31,45,46,E,46,easy,low,3,3
1101,6,4,104,BDF,0.657,26,45,57,F,57,easy,high,3,3
1102,6,4,105,ACE,1.095,26,45,53,E,53,easy,low,3,3
1103,6,4,106,ABC,1.793,20,29,40,C,40,hard,low,3,5
1104,6,4,107,DEF,0.648,42,46,49,E,46,hard,high,2,3
1105,6,4,108,ACE,0.914,18,43,52,E,52,easy,low,3,2
1106,6,4,109,DEF,0.678,50,49,43,F,43,hard,high,3,3
1107,6,4,110,BDF,0.474,46,34,50,F,50,easy,high,3,1
1108,6,4,111,ABC,0.817,21,35,48,C,48,hard,low,3,2
1109,6,4,112,DEF,0.531,36,36,47,F,47,hard,high,3,1
1110,6,4,113,ABC,0.917,26,34,33,C,33,hard,low,3,2
1111,6,4,114,ACE,1.105,33,39,45,C,39,easy,low,2,3
1112,6,4,115,BDF,0.548,26,44,46,F,46,easy,high,3,2
1113,6,4,116,ABC,1.554,35,22,47,C,47,hard,low,3,5
1114,6,4,117,DEF,0.575,44,49,42,F,42,hard,high,3,2
1115,6,4,118,BDF,0.761,32,41,50,F,50,easy,high,3,4
1116,6,4,119,DEF,0.643,43,47,44,F,44,hard,high,3,3
1117,6,4,120,ABC,1.0,30,27,46,C,46,hard,low,3,2
1118,6,4,121,DEF,0.742,44,51,59,F,59,hard,high,3,3
1119,6,4,122,ACE,1.366,30,40,49,E,49,easy,low,3,4
1120,6,4,123,DEF,0.756,40,34,54,F,54,hard,high,3,4
1121,6,4,124,ACE,1.329,31,36,41,E,41,easy,low,3,4
1122,6,4,125,DEF,0.647,48,47,51,E,47,hard,high,2,3
1123,6,4,126,ABC,1.678,28,34,38,C,38,hard,low,3,5
1124,6,4,127,DEF,0.798,46,53,44,E,53,hard,high,2,4
1125,6,4,128,ABC,1.169,39,38,33,C,33,hard,low,3,3
1126,6,4,129,DEF,0.577,41,51,49,F,49,hard,high,3,2
1127,6,4,130,BDF,1.449,38,37,47,F,47,easy,high,3,6
1128,6,4,131,ACE,1.426,26,30,56,E,56,easy,low,3,4
1129,6,4,132,BDF,0.846,44,45,57,F,57,easy,high,3,4
1130,6,4,133,DEF,1.041,33,58,56,E,58,hard,high,2,5
1131,6,4,134,ACE,0.866,21,42,52,E,52,easy,low,3,2
1132,6,4,135,BDF,0.902,33,40,47,F,47,easy,high,3,4
1133,6,4,136,ABC,2.054,38,37,38,B,37,hard,low,2,6
1134,6,4,137,ACE,1.214,28,44,52,E,52,easy,low,3,3
1135,6,4,138,BDF,1.387,31,37,51,F,51,easy,high,3,5
1136,6,4,139,ACE,1.297,27,34,45,E,45,easy,low,3,4
1137,6,4,140,ABC,1.519,24,40,41,C,41,hard,low,3,4
1138,6,4,141,BDF,1.182,31,48,58,F,58,easy,high,3,5
1139,6,4,142,ACE,1.291,34,34,41,E,41,easy,low,3,4
1140,6,4,143,ABC,1.552,27,32,45,C,45,hard,low,3,5
1141,6,4,144,BDF,0.642,35,40,51,F,51,easy,high,3,3
1142,6,4,145,ABC,1.82,37,42,42,C,42,hard,low,3,6
1143,6,4,146,DEF,1.688,35,49,47,F,47,hard,high,3,6
1144,6,4,147,ACE,1.518,31,41,42,E,42,easy,low,3,5
1145,6,4,148,DEF,0.747,45,42,46,F,46,hard,high,3,4
1146,6,4,149,ABC,1.311,29,30,38,C,38,hard,low,3,4
1147,6,4,150,DEF,0.939,48,37,50,E,37,hard,high,2,5
1148,6,4,151,BDF,0.771,32,44,48,F,48,easy,high,3,4
1149,6,4,152,ABC,1.065,29,31,41,C,41,hard,low,3,2
1150,6,4,153,ACE,0.758,24,34,43,E,43,easy,low,3,1
1151,6,4,154,DEF,0.757,45,48,55,E,48,hard,high,2,4
1152,6,4,155,ABC,1.095,39,37,41,C,41,hard,low,3,3
1153,6,4,156,ACE,1.056,25,38,41,E,41,easy,low,3,3
1154,6,4,157,DEF,0.71,38,46,45,F,45,hard,high,3,3
1155,6,4,158,ABC,0.778,32,33,43,C,43,hard,low,3,1
1156,6,4,159,DEF,0.657,44,44,45,F,45,hard,high,3,3
1157,6,4,160,ACE,0.927,28,38,45,E,45,easy,low,3,2
1158,6,4,161,BDF,0.562,36,38,58,F,58,easy,high,3,2
1159,6,4,162,DEF,0.655,35,39,54,F,54,hard,high,3,3
1160,6,4,163,ACE,0.998,29,46,37,E,37,easy,low,3,2
1161,6,4,164,BDF,0.477,31,39,53,F,53,easy,high,3,1
1162,6,4,165,ABC,0.732,33,35,35,C,35,hard,low,3,1
1163,6,4,166,ACE,0.959,27,40,46,E,46,easy,low,3,2
1164,6,4,167,ABC,0.673,25,31,44,C,44,hard,low,3,1
1165,6,4,168,ACE,0.667,35,40,41,E,41,easy,low,3,1
1166,6,4,169,ABC,0.702,33,39,47,C,47,hard,low,3,1
1167,6,4,170,BDF,0.607,36,51,55,F,55,easy,high,3,2
1168,6,4,171,DEF,0.575,49,43,46,E,43,hard,high,2,2
1169,6,4,172,ABC,1.112,30,40,36,C,36,hard,low,3,3
1170,6,4,173,ACE,1.035,31,39,48,E,48,easy,low,3,2
1171,6,4,174,ABC,1.798,30,38,32,C,32,hard,low,3,6
1172,6,4,175,BDF,0.531,39,45,50,F,50,easy,high,3,2
1173,6,4,176,ABC,0.943,36,35,37,C,37,hard,low,3,2
1174,6,4,177,DEF,0.548,47,51,49,E,51,hard,high,2,1
1175,6,4,178,BDF,0.5,25,37,54,F,54,easy,high,3,1
1176,6,4,179,DEF,0.697,41,51,53,F,53,hard,high,3,3
1177,6,4,180,ABC,1.269,32,36,42,C,42,hard,low,3,4
1178,6,4,181,BDF,0.489,35,39,55,F,55,easy,high,3,1
1179,6,4,182,ABC,1.099,23,37,32,C,32,hard,low,3,3
1180,6,4,183,DEF,0.551,43,48,55,F,55,hard,high,3,1
1181,6,4,184,BDF,0.561,32,39,52,F,52,easy,high,3,2
1182,6,4,185,DEF,0.62,47,46,45,F,45,hard,high,3,2
1183,6,4,186,ACE,0.855,33,50,44,E,44,easy,low,3,1
1184,6,4,187,ABC,0.729,22,30,33,C,33,hard,low,3,1
1185,6,4,188,ACE,1.264,33,32,50,E,50,easy,low,3,3
1186,6,4,189,DEF,0.802,46,44,52,F,52,hard,high,3,4
1187,6,4,190,ACE,1.188,24,37,48,E,48,easy,low,3,3
1188,6,4,191,DEF,0.755,41,46,47,F,47,hard,high,3,4
1189,6,4,192,ACE,1.283,40,39,42,E,42,easy,low,3,4
1190,6,4,193,ABC,0.846,38,30,26,A,38,hard,low,1,2
1191,6,4,194,BDF,0.478,29,46,41,F,41,easy,high,3,1
1192,6,4,195,DEF,0.615,49,45,54,F,54,hard,high,3,2
1193,6,4,196,BDF,0.713,32,32,49,F,49,easy,high,3,3
1194,6,4,197,DEF,0.576,46,53,60,F,60,hard,high,3,2
1195,6,4,198,ABC,1.378,30,30,36,C,36,hard,low,3,4
1196,6,4,199,DEF,0.914,42,43,43,E,43,hard,high,2,5
1197,6,4,200,BDF,0.856,33,50,56,F,56,easy,high,3,4
1198,7,4,1,BDF,1.858,32,30,55,F,55,easy,high,3,5
1199,7,4,2,ABC,4.219,37,35,36,C,36,hard,low,3,6
1200,7,4,3,BDF,2.709,35,47,48,D,47,easy,high,2,5
1201,7,4,4,ACE,4.924,27,34,39,C,34,easy,low,2,6
1202,7,4,5,ABC,2.029,30,38,50,C,50,hard,low,3,5
1203,7,4,6,DEF,2.331,48,49,47,D,48,hard,high,1,5
1204,7,4,7,ABC,1.667,32,34,43,C,43,hard,low,3,4
1205,7,4,8,DEF,2.738,41,47,56,D,41,hard,high,1,5
1206,7,4,9,ABC,3.794,25,30,35,C,35,hard,low,3,6
1207,7,4,10,ACE,3.129,21,41,43,C,41,easy,low,2,5
1208,7,4,11,DEF,4.557,40,50,47,F,47,hard,high,3,6
1209,7,4,12,ACE,1.609,20,34,55,C,34,easy,low,2,3
1210,7,4,13,BDF,3.078,35,45,51,D,45,easy,high,2,6
1211,7,4,14,ABC,1.595,22,35,43,C,43,hard,low,3,4
1212,7,4,15,ACE,3.775,28,37,45,C,37,easy,low,2,6
1213,7,4,16,ABC,1.768,33,42,40,C,40,hard,low,3,5
1214,7,4,17,BDF,4.515,33,47,48,F,48,easy,high,3,6
1215,7,4,18,ABC,3.214,38,26,42,C,42,hard,low,3,6
1216,7,4,19,ACE,1.825,33,43,39,C,43,easy,low,2,4
1217,7,4,20,BDF,2.448,40,45,42,D,45,easy,high,2,5
1218,7,4,21,ACE,2.868,26,31,51,C,31,easy,low,2,5
1219,7,4,22,DEF,1.351,42,46,50,E,46,hard,high,2,4
1220,7,4,23,BDF,2.069,31,51,47,D,51,easy,high,2,5
1221,7,4,24,DEF,0.693,49,58,49,E,58,hard,high,2,1
1222,7,4,25,BDF,4.596,37,42,57,B,37,easy,high,1,6
1223,7,4,26,DEF,1.294,45,50,45,D,45,hard,high,1,4
1224,7,4,27,ABC,2.77,37,33,48,C,48,hard,low,3,5
1225,7,4,28,DEF,1.936,42,54,54,F,54,hard,high,3,5
1226,7,4,29,ACE,2.113,26,40,41,C,40,easy,low,2,4
1227,7,4,30,ABC,2.224,29,38,39,C,39,hard,low,3,5
1228,7,4,31,DEF,2.902,41,44,54,E,44,hard,high,2,6
1229,7,4,32,ABC,2.386,34,43,41,C,41,hard,low,3,5
1230,7,4,33,DEF,2.867,43,46,57,E,46,hard,high,2,5
1231,7,4,34,ACE,1.023,36,42,43,C,42,easy,low,2,2
1232,7,4,35,BDF,0.708,31,41,44,F,44,easy,high,3,1
1233,7,4,36,ABC,1.567,27,25,46,C,46,hard,low,3,4
1234,7,4,37,DEF,2.838,38,43,62,F,62,hard,high,3,5
1235,7,4,38,BDF,1.732,39,42,52,F,52,easy,high,3,4
1236,7,4,39,DEF,1.217,47,46,49,F,49,hard,high,3,3
1237,7,4,40,ACE,2.513,23,35,45,C,35,easy,low,2,5
1238,7,4,41,BDF,2.134,31,39,50,F,50,easy,high,3,5
1239,7,4,42,DEF,1.103,40,42,55,F,55,hard,high,3,3
1240,7,4,43,BDF,1.309,33,46,44,F,44,easy,high,3,3
1241,7,4,44,ACE,3.677,35,36,50,E,50,easy,low,3,6
1242,7,4,45,DEF,1.211,37,34,47,D,37,hard,high,1,3
1243,7,4,46,ACE,1.834,34,26,42,E,42,easy,low,3,4
1244,7,4,47,DEF,1.796,46,41,54,F,54,hard,high,3,4
1245,7,4,48,ACE,1.275,29,41,44,E,44,easy,low,3,3
1246,7,4,49,DEF,1.351,39,41,48,F,48,hard,high,3,4
1247,7,4,50,ABC,1.764,34,40,29,C,29,hard,low,3,4
1248,7,4,51,ACE,4.457,18,35,42,E,42,easy,low,3,6
1249,7,4,52,BDF,1.097,35,38,58,F,58,easy,high,3,3
1250,7,4,53,ACE,2.884,29,40,45,E,45,easy,low,3,5
1251,7,4,54,BDF,1.287,27,48,43,F,43,easy,high,3,3
1252,7,4,55,ACE,3.515,30,38,46,C,38,easy,low,2,5
1253,7,4,56,DEF,0.916,45,44,53,F,53,hard,high,3,2
1254,7,4,57,BDF,1.456,31,44,46,F,46,easy,high,3,4
1255,7,4,58,DEF,0.838,36,47,46,F,46,hard,high,3,2
1256,7,4,59,ACE,1.968,31,32,44,E,44,easy,low,3,4
1257,7,4,60,ABC,1.553,33,34,33,B,34,hard,low,2,4
1258,7,4,61,DEF,0.827,35,47,49,F,49,hard,high,3,2
1259,7,4,62,ABC,1.513,28,36,44,B,36,hard,low,2,4
1260,7,4,63,DEF,0.923,34,44,47,F,47,hard,high,3,2
1261,7,4,64,ABC,2.603,24,24,35,B,24,hard,low,2,5
1262,7,4,65,ACE,3.429,31,40,47,C,40,easy,low,2,5
1263,7,4,66,ABC,1.227,26,36,38,C,38,hard,low,3,2
1264,7,4,67,BDF,0.765,38,44,53,F,53,easy,high,3,2
1265,7,4,68,DEF,1.192,35,42,52,F,52,hard,high,3,3
1266,7,4,69,ABC,1.626,30,40,37,C,37,hard,low,3,4
1267,7,4,70,DEF,1.093,43,40,42,F,42,hard,high,3,3
1268,7,4,71,ACE,1.352,24,45,47,C,45,easy,low,2,3
1269,7,4,72,BDF,2.112,33,41,59,F,59,easy,high,3,5
1270,7,4,73,DEF,1.29,37,47,51,F,51,hard,high,3,3
1271,7,4,74,BDF,1.414,34,42,40,F,40,easy,high,3,4
1272,7,4,75,ACE,2.423,25,36,53,C,36,easy,low,2,5
1273,7,4,76,BDF,1.379,39,39,50,F,50,easy,high,3,4
1274,7,4,77,DEF,0.978,42,43,55,F,55,hard,high,3,2
1275,7,4,78,ABC,1.28,28,37,41,C,41,hard,low,3,3
1276,7,4,79,ACE,2.27,26,33,51,E,51,easy,low,3,5
1277,7,4,80,DEF,0.76,46,46,54,F,54,hard,high,3,2
1278,7,4,81,BDF,0.724,32,40,49,F,49,easy,high,3,1
1279,7,4,82,ACE,2.053,32,31,52,E,52,easy,low,3,4
1280,7,4,83,BDF,0.768,25,43,46,F,46,easy,high,3,2
1281,7,4,84,ACE,2.004,26,33,40,E,40,easy,low,3,4
1282,7,4,85,DEF,0.571,50,43,56,F,56,hard,high,3,1
1283,7,4,86,ACE,1.062,39,35,43,E,43,easy,low,3,2
1284,7,4,87,DEF,0.49,42,53,43,F,43,hard,high,3,1
1285,7,4,88,ACE,1.14,25,47,51,E,51,easy,low,3,2
1286,7,4,89,BDF,0.695,37,40,46,F,46,easy,high,3,1
1287,7,4,90,ABC,1.676,30,46,28,C,28,hard,low,3,4
1288,7,4,91,DEF,1.769,47,43,53,F,53,hard,high,3,4
1289,7,4,92,ACE,1.941,25,40,41,E,41,easy,low,3,4
1290,7,4,93,ABC,1.633,29,37,34,C,34,hard,low,3,4
1291,7,4,94,DEF,0.88,43,49,44,F,44,hard,high,3,2
1292,7,4,95,ABC,1.526,33,28,44,C,44,hard,low,3,4
1293,7,4,96,ACE,2.065,32,47,49,E,49,easy,low,3,4
1294,7,4,97,BDF,1.13,36,45,51,B,36,easy,high,1,3
1295,7,4,98,ABC,1.275,38,34,38,C,38,hard,low,3,3
1296,7,4,99,ACE,0.92,35,38,44,C,38,easy,low,2,1
1297,7,4,100,BDF,1.714,33,43,52,F,52,easy,high,3,4
1298,7,4,101,ABC,3.716,29,29,32,C,32,hard,low,3,6
1299,7,4,102,DEF,1.269,42,46,55,F,55,hard,high,3,3
1300,7,4,103,ABC,2.296,35,36,44,C,44,hard,low,3,5
1301,7,4,104,BDF,1.467,32,43,56,F,56,easy,high,3,4
1302,7,4,105,DEF,1.804,39,55,38,F,38,hard,high,3,5
1303,7,4,106,ACE,2.4,40,35,48,E,48,easy,low,3,5
1304,7,4,107,DEF,1.805,37,41,48,E,41,hard,high,2,5
1305,7,4,108,ABC,1.463,28,34,37,C,37,hard,low,3,3
1306,7,4,109,DEF,1.213,36,51,48,E,51,hard,high,2,3
1307,7,4,110,BDF,1.007,43,44,60,F,60,easy,high,3,3
1308,7,4,111,ACE,0.825,32,39,36,E,36,easy,low,3,1
1309,7,4,112,BDF,1.212,30,44,49,F,49,easy,high,3,3
1310,7,4,113,ACE,1.292,31,45,56,C,45,easy,low,2,3
1311,7,4,114,BDF,1.373,30,52,59,F,59,easy,high,3,4
1312,7,4,115,DEF,1.421,45,54,52,E,54,hard,high,2,4
1313,7,4,116,ACE,1.719,25,33,37,E,37,easy,low,3,3
1314,7,4,117,BDF,1.348,29,34,47,F,47,easy,high,3,4
1315,7,4,118,DEF,1.24,36,53,51,F,51,hard,high,3,3
1316,7,4,119,ACE,0.794,34,40,45,E,45,easy,low,3,1
1317,7,4,120,BDF,2.282,39,40,50,F,50,easy,high,3,5
1318,7,4,121,DEF,1.772,38,51,48,F,48,hard,high,3,4
1319,7,4,122,ABC,1.252,24,39,38,C,38,hard,low,3,3
1320,7,4,123,ACE,1.192,36,31,49,E,49,easy,low,3,2
1321,7,4,124,DEF,1.359,37,44,51,F,51,hard,high,3,4
1322,7,4,125,BDF,0.756,31,33,47,F,47,easy,high,3,2
1323,7,4,126,ABC,1.009,33,30,43,C,43,hard,low,3,1
1324,7,4,127,ACE,0.996,35,30,42,C,30,easy,low,2,2
1325,7,4,128,ABC,0.89,34,36,38,C,38,hard,low,3,1
1326,7,4,129,DEF,0.746,50,38,53,F,53,hard,high,3,1
1327,7,4,130,ACE,0.994,32,37,48,E,48,easy,low,3,2
1328,7,4,131,BDF,1.044,33,44,57,F,57,easy,high,3,3
1329,7,4,132,ABC,1.145,24,36,39,C,39,hard,low,3,2
1330,7,4,133,ACE,1.042,26,33,48,C,33,easy,low,2,2
1331,7,4,134,BDF,0.854,36,40,43,F,43,easy,high,3,2
1332,7,4,135,DEF,0.954,46,50,54,F,54,hard,high,3,2
1333,7,4,136,ACE,0.964,27,36,49,E,49,easy,low,3,1
1334,7,4,137,ABC,1.474,35,27,44,B,27,hard,low,2,3
1335,7,4,138,BDF,0.97,30,39,46,F,46,easy,high,3,2
1336,7,4,139,ABC,1.065,29,29,41,C,41,hard,low,3,2
1337,7,4,140,DEF,1.612,38,45,49,E,45,hard,high,2,4
1338,7,4,141,ABC,0.973,39,31,40,C,40,hard,low,3,1
1339,7,4,142,BDF,1.341,35,48,56,F,56,easy,high,3,4
1340,7,4,143,DEF,1.002,45,52,49,F,49,hard,high,3,3
1341,7,4,144,ACE,1.194,31,36,50,E,50,easy,low,3,2
1342,7,4,145,BDF,0.639,41,44,45,F,45,easy,high,3,1
1343,7,4,146,ABC,0.901,27,35,41,C,41,hard,low,3,1
1344,7,4,147,DEF,0.781,48,47,45,E,47,hard,high,2,2
1345,7,4,148,ABC,1.2,28,32,32,C,32,hard,low,3,2
1346,7,4,149,ACE,1.119,27,34,38,C,34,easy,low,2,2
1347,7,4,150,DEF,0.733,38,49,52,F,52,hard,high,3,1
1348,7,4,151,ACE,1.201,31,35,45,E,45,easy,low,3,3
1349,7,4,152,ABC,1.052,31,34,42,C,42,hard,low,3,2
1350,7,4,153,DEF,0.931,36,42,50,F,50,hard,high,3,2
1351,7,4,154,BDF,1.087,34,32,45,F,45,easy,high,3,3
1352,7,4,155,ACE,1.65,36,39,48,E,48,easy,low,3,3
1353,7,4,156,DEF,1.382,46,45,54,F,54,hard,high,3,4
1354,7,4,157,ACE,0.991,23,36,45,E,45,easy,low,3,2
1355,7,4,158,ABC,0.725,28,27,39,C,39,hard,low,3,1
1356,7,4,159,DEF,0.793,51,40,44,F,44,hard,high,3,2
1357,7,4,160,BDF,0.963,32,41,51,F,51,easy,high,3,2
1358,7,4,161,ABC,1.559,31,37,41,C,41,hard,low,3,4
1359,7,4,162,ACE,1.503,31,45,46,E,46,easy,low,3,3
1360,7,4,163,ABC,1.394,30,32,36,C,36,hard,low,3,3
1361,7,4,164,ACE,0.967,27,43,49,E,49,easy,low,3,1
1362,7,4,165,BDF,0.911,33,46,55,F,55,easy,high,3,2
1363,7,4,166,ABC,1.308,34,39,46,C,46,hard,low,3,3
1364,7,4,167,ACE,1.976,28,32,48,E,48,easy,low,3,4
1365,7,4,168,ABC,1.55,23,40,37,C,37,hard,low,3,4
1366,7,4,169,ACE,1.094,29,38,52,E,52,easy,low,3,2
1367,7,4,170,BDF,0.973,29,49,58,F,58,easy,high,3,2
1368,7,4,171,ABC,1.134,32,33,30,C,30,hard,low,3,2
1369,7,4,172,BDF,1.381,42,43,46,D,43,easy,high,2,4
1370,7,4,173,ACE,1.495,32,42,37,E,37,easy,low,3,3
1371,7,4,174,ABC,1.181,42,28,42,C,42,hard,low,3,2
1372,7,4,175,BDF,0.518,44,35,50,F,50,easy,high,3,1
1373,7,4,176,DEF,1.217,33,48,50,F,50,hard,high,3,3
1374,7,4,177,BDF,0.794,37,39,53,F,53,easy,high,3,2
1375,7,4,178,ABC,1.175,21,26,29,C,29,hard,low,3,2
1376,7,4,179,DEF,0.907,41,46,41,F,41,hard,high,3,2
1377,7,4,180,BDF,1.607,32,41,52,F,52,easy,high,3,4
1378,7,4,181,ACE,2.141,27,34,48,C,34,easy,low,2,4
1379,7,4,182,BDF,1.349,38,54,41,F,41,easy,high,3,4
1380,7,4,183,ACE,1.275,22,39,39,C,39,easy,low,2,3
1381,7,4,184,ABC,1.397,30,34,39,B,34,hard,low,2,3
1382,7,4,185,BDF,0.881,38,37,51,F,51,easy,high,3,2
1383,7,4,186,DEF,0.759,47,40,53,F,53,hard,high,3,1
1384,7,4,187,BDF,0.778,35,40,49,F,49,easy,high,3,2
1385,7,4,188,ABC,1.219,30,38,37,C,37,hard,low,3,2
1386,7,4,189,BDF,1.147,41,43,51,F,51,easy,high,3,3
1387,7,4,190,ABC,1.235,36,22,42,C,42,hard,low,3,2
1388,7,4,191,DEF,1.169,49,52,45,F,45,hard,high,3,3
1389,7,4,192,ABC,1.49,30,28,37,C,37,hard,low,3,3
1390,7,4,193,BDF,0.572,31,41,50,F,50,easy,high,3,1
1391,7,4,194,DEF,0.59,39,50,53,F,53,hard,high,3,1
1392,7,4,195,ABC,1.024,29,37,34,C,34,hard,low,3,1
1393,7,4,196,BDF,0.478,28,44,48,F,48,easy,high,3,1
1394,7,4,197,ACE,1.164,37,37,47,C,37,easy,low,2,2
1395,7,4,198,ABC,0.902,33,29,39,C,39,hard,low,3,1
1396,7,4,199,BDF,0.802,41,38,52,F,52,easy,high,3,2
1397,7,4,200,ABC,1.366,33,30,38,C,38,hard,low,3,3
1398,8,4,1,ACE,2.561,29,43,38,C,43,easy,low,2,4
1399,8,4,2,DEF,1.511,46,42,46,F,46,hard,high,3,2
1400,8,4,3,BDF,3.352,34,41,50,F,50,easy,high,3,5
1401,8,4,4,DEF,2.175,46,50,54,F,54,hard,high,3,4
1402,8,4,5,BDF,1.882,33,44,49,F,49,easy,high,3,3
1403,8,4,6,ABC,2.771,29,24,34,C,34,hard,low,3,4
1404,8,4,7,DEF,1.541,51,50,53,F,53,hard,high,3,3
1405,8,4,8,BDF,3.473,37,44,56,F,56,easy,high,3,5
1406,8,4,9,ACE,1.74,40,39,46,C,39,easy,low,2,2
1407,8,4,10,ABC,2.877,26,37,39,C,39,hard,low,3,4
1408,8,4,11,DEF,1.284,42,47,55,F,55,hard,high,3,2
1409,8,4,12,ACE,3.251,26,40,40,E,40,easy,low,3,4
1410,8,4,13,BDF,1.992,35,38,49,F,49,easy,high,3,3
1411,8,4,14,ACE,2.83,27,34,45,E,45,easy,low,3,4
1412,8,4,15,BDF,1.897,29,42,51,F,51,easy,high,3,3
1413,8,4,16,ABC,3.215,33,41,48,C,48,hard,low,3,4
1414,8,4,17,ACE,2.279,29,32,54,E,54,easy,low,3,3
1415,8,4,18,ABC,2.393,28,28,32,C,32,hard,low,3,3
1416,8,4,19,ACE,2.237,26,29,39,E,39,easy,low,3,3
1417,8,4,20,ABC,3.113,23,31,35,C,35,hard,low,3,4
1418,8,4,21,BDF,2.897,41,36,43,F,43,easy,high,3,5
1419,8,4,22,ABC,1.673,30,27,40,C,40,hard,low,3,2
1420,8,4,23,DEF,3.171,43,54,43,E,54,hard,high,2,5
1421,8,4,24,BDF,2.013,36,37,52,F,52,easy,high,3,4
1422,8,4,25,ACE,1.46,30,41,44,E,44,easy,low,3,1
1423,8,4,26,DEF,2.759,40,47,46,F,46,hard,high,3,4
1424,8,4,27,ABC,2.324,22,29,28,C,28,hard,low,3,3
1425,8,4,28,DEF,2.694,40,51,42,E,51,hard,high,2,4
1426,8,4,29,BDF,5.003,39,48,38,F,38,easy,high,3,6
1427,8,4,30,ABC,4.057,34,38,38,C,38,hard,low,3,5
1428,8,4,31,DEF,3.112,42,44,56,E,44,hard,high,2,5
1429,8,4,32,ACE,1.804,36,35,48,E,48,easy,low,3,2
1430,8,4,33,BDF,2.931,28,44,54,F,54,easy,high,3,5
1431,8,4,34,ABC,2.249,25,38,33,C,33,hard,low,3,3
1432,8,4,35,DEF,4.18,37,45,45,F,45,hard,high,3,6
1433,8,4,36,ABC,5.324,31,33,29,C,29,hard,low,3,6
1434,8,4,37,ACE,4.048,35,34,49,E,49,easy,low,3,5
1435,8,4,38,ABC,4.267,32,39,37,B,39,hard,low,2,6
1436,8,4,39,BDF,6.286,31,44,50,F,50,easy,high,3,6
1437,8,4,40,ACE,1.858,29,39,44,E,44,easy,low,3,2
1438,8,4,41,BDF,2.827,41,45,41,F,41,easy,high,3,4
1439,8,4,42,DEF,1.737,38,48,47,D,38,hard,high,1,3
1440,8,4,43,BDF,4.218,30,39,51,D,39,easy,high,2,6
1441,8,4,44,DEF,1.861,37,44,49,F,49,hard,high,3,3
1442,8,4,45,ABC,3.562,42,32,35,C,35,hard,low,3,5
1443,8,4,46,DEF,2.884,45,45,48,E,45,hard,high,2,4
1444,8,4,47,BDF,6.209,34,49,53,F,53,easy,high,3,6
1445,8,4,48,ACE,2.401,37,38,49,E,49,easy,low,3,3
1446,8,4,49,ABC,1.95,39,32,37,C,37,hard,low,3,2
1447,8,4,50,DEF,2.931,32,41,46,F,46,hard,high,3,4
1448,8,4,51,BDF,3.88,42,43,54,D,43,easy,high,2,5
1449,8,4,52,ACE,2.787,38,35,46,A,38,easy,low,1,4
1450,8,4,53,ABC,2.829,29,35,46,C,46,hard,low,3,4
1451,8,4,54,DEF,1.764,46,41,52,F,52,hard,high,3,3
1452,8,4,55,ABC,3.306,37,39,31,A,37,hard,low,1,5
1453,8,4,56,ACE,4.437,34,34,41,C,34,easy,low,2,6
1454,8,4,57,BDF,1.542,30,40,45,D,40,easy,high,2,2
1455,8,4,58,ABC,4.905,27,32,31,A,27,hard,low,1,6
1456,8,4,59,BDF,1.446,33,33,57,F,57,easy,high,3,2
1457,8,4,60,ACE,4.738,28,44,40,A,28,easy,low,1,6
1458,8,4,61,ABC,1.613,24,33,32,B,33,hard,low,2,1
1459,8,4,62,ACE,6.262,25,36,46,E,46,easy,low,3,6
1460,8,4,63,BDF,2.167,31,33,54,F,54,easy,high,3,4
1461,8,4,64,ABC,3.395,29,27,36,B,27,hard,low,2,5
1462,8,4,65,ACE,2.493,38,31,45,E,45,easy,low,3,3
1463,8,4,66,BDF,2.424,38,43,59,F,59,easy,high,3,4
1464,8,4,67,DEF,3.246,49,50,47,D,49,hard,high,1,5
1465,8,4,68,ACE,6.671,33,42,38,C,42,easy,low,2,6
1466,8,4,69,DEF,1.313,38,45,51,F,51,hard,high,3,2
1467,8,4,70,BDF,3.564,35,47,48,B,35,easy,high,1,5
1468,8,4,71,DEF,1.664,40,49,45,F,45,hard,high,3,3
1469,8,4,72,ACE,1.57,28,32,47,C,32,easy,low,2,1
1470,8,4,73,ABC,2.109,31,37,39,C,39,hard,low,3,2
1471,8,4,74,ACE,3.058,33,40,34,E,34,easy,low,3,4
1472,8,4,75,BDF,1.889,31,44,60,F,60,easy,high,3,3
1473,8,4,76,DEF,1.572,37,45,55,E,45,hard,high,2,3
1474,8,4,77,BDF,1.836,37,38,55,F,55,easy,high,3,3
1475,8,4,78,ACE,2.194,28,35,42,C,35,easy,low,2,3
1476,8,4,79,BDF,1.151,34,43,50,F,50,easy,high,3,1
1477,8,4,80,ACE,3.154,23,44,49,C,44,easy,low,2,4
1478,8,4,81,ABC,3.786,33,34,41,C,41,hard,low,3,5
1479,8,4,82,DEF,1.134,45,55,52,F,52,hard,high,3,2
1480,8,4,83,ABC,1.732,35,36,33,C,33,hard,low,3,2
1481,8,4,84,ACE,1.813,31,39,51,C,39,easy,low,2,2
1482,8,4,85,ABC,3.117,33,36,26,C,26,hard,low,3,4
1483,8,4,86,DEF,3.129,47,56,51,F,51,hard,high,3,5
1484,8,4,87,BDF,2.989,43,49,46,F,46,easy,high,3,5
1485,8,4,88,DEF,3.489,39,40,44,F,44,hard,high,3,5
1486,8,4,89,ABC,1.778,30,37,35,B,37,hard,low,2,2
1487,8,4,90,DEF,2.988,46,43,50,E,43,hard,high,2,4
1488,8,4,91,ACE,3.043,27,37,50,C,37,easy,low,2,4
1489,8,4,92,ABC,1.818,27,28,37,B,28,hard,low,2,2
1490,8,4,93,ACE,4.404,24,40,46,C,40,easy,low,2,5
1491,8,4,94,DEF,1.937,39,45,49,F,49,hard,high,3,3
1492,8,4,95,ABC,1.268,33,30,37,B,30,hard,low,2,1
1493,8,4,96,BDF,2.886,43,36,54,F,54,easy,high,3,4
1494,8,4,97,ABC,2.28,30,38,36,B,38,hard,low,2,3
1495,8,4,98,ACE,1.855,25,47,40,E,40,easy,low,3,2
1496,8,4,99,BDF,3.772,33,37,49,F,49,easy,high,3,5
1497,8,4,100,DEF,2.208,35,37,53,F,53,hard,high,3,4
1498,8,4,101,ABC,2.322,26,39,39,B,39,hard,low,2,3
1499,8,4,102,DEF,3.991,45,48,56,F,56,hard,high,3,5
1500,8,4,103,ABC,2.636,24,26,36,C,36,hard,low,3,3
1501,8,4,104,BDF,1.163,42,42,50,F,50,easy,high,3,2
1502,8,4,105,ABC,1.624,31,31,43,C,43,hard,low,3,1
1503,8,4,106,ACE,3.992,22,40,48,E,48,easy,low,3,5
1504,8,4,107,BDF,1.572,31,40,57,F,57,easy,high,3,2
1505,8,4,108,ACE,4.148,28,33,44,C,33,easy,low,2,5
1506,8,4,109,ABC,4.101,20,31,38,B,31,hard,low,2,5
1507,8,4,110,ACE,2.745,36,38,41,E,41,easy,low,3,4
1508,8,4,111,DEF,1.519,34,49,46,F,46,hard,high,3,2
1509,8,4,112,ACE,3.786,34,33,48,E,48,easy,low,3,5
1510,8,4,113,ABC,5.116,26,46,38,B,46,hard,low,2,6
1511,8,4,114,BDF,1.674,22,44,44,F,44,easy,high,3,3
1512,8,4,115,ACE,3.565,31,40,46,E,46,easy,low,3,5
1513,8,4,116,ABC,3.001,25,34,30,C,30,hard,low,3,4
1514,8,4,117,ACE,3.291,24,47,36,E,36,easy,low,3,4
1515,8,4,118,BDF,1.348,27,39,47,F,47,easy,high,3,2
1516,8,4,119,DEF,4.175,38,43,46,E,43,hard,high,2,6
1517,8,4,120,ABC,3.936,30,29,41,C,41,hard,low,3,5
1518,8,4,121,BDF,1.841,30,42,49,F,49,easy,high,3,3
1519,8,4,122,DEF,3.509,35,47,40,E,47,hard,high,2,5
1520,8,4,123,ABC,3.976,35,35,35,C,35,hard,low,3,5
1521,8,4,124,ACE,1.983,36,37,52,E,52,easy,low,3,2
1522,8,4,125,ABC,2.107,28,32,39,C,39,hard,low,3,2
1523,8,4,126,BDF,1.9,25,46,52,F,52,easy,high,3,3
1524,8,4,127,ACE,3.39,30,40,42,E,42,easy,low,3,5
1525,8,4,128,DEF,1.964,41,43,45,F,45,hard,high,3,3
1526,8,4,129,BDF,3.532,35,51,48,F,48,easy,high,3,5
1527,8,4,130,ABC,4.036,29,38,42,B,38,hard,low,2,5
1528,8,4,131,BDF,3.615,39,39,42,F,42,easy,high,3,5
1529,8,4,132,DEF,1.985,48,50,48,E,50,hard,high,2,3
1530,8,4,133,ACE,2.142,34,43,49,E,49,easy,low,3,3
1531,8,4,134,DEF,4.204,42,43,47,F,47,hard,high,3,6
1532,8,4,135,BDF,3.476,29,44,58,F,58,easy,high,3,5
1533,8,4,136,ABC,2.75,32,44,42,C,42,hard,low,3,3
1534,8,4,137,ACE,5.079,21,42,52,E,52,easy,low,3,6
1535,8,4,138,BDF,2.123,26,41,62,F,62,easy,high,3,4
1536,8,4,139,ABC,2.556,35,40,43,C,43,hard,low,3,3
1537,8,4,140,BDF,1.558,37,47,52,F,52,easy,high,3,2
1538,8,4,141,ACE,3.563,30,37,47,E,47,easy,low,3,5
1539,8,4,142,ABC,3.219,31,36,41,C,41,hard,low,3,4
1540,8,4,143,ACE,3.447,32,50,53,E,53,easy,low,3,5
1541,8,4,144,ABC,1.483,39,34,36,C,36,hard,low,3,1
1542,8,4,145,ACE,2.356,33,45,43,A,33,easy,low,1,3
1543,8,4,146,ABC,2.12,37,35,36,A,37,hard,low,1,2
1544,8,4,147,DEF,1.769,45,48,50,F,50,hard,high,3,3
1545,8,4,148,BDF,5.248,30,39,47,F,47,easy,high,3,6
1546,8,4,149,ABC,1.068,34,40,45,A,34,hard,low,1,1
1547,8,4,150,BDF,1.986,30,48,47,F,47,easy,high,3,3
1548,8,4,151,DEF,4.29,40,47,53,F,53,hard,high,3,6
1549,8,4,152,ACE,2.099,36,44,47,E,47,easy,low,3,3
1550,8,4,153,BDF,1.747,38,41,50,F,50,easy,high,3,3
1551,8,4,154,ACE,6.667,34,38,42,E,42,easy,low,3,6
1552,8,4,155,BDF,4.443,33,34,55,F,55,easy,high,3,6
1553,8,4,156,ABC,2.063,35,34,37,A,35,hard,low,1,2
1554,8,4,157,DEF,2.169,43,46,57,F,57,hard,high,3,3
1555,8,4,158,ACE,2.644,27,44,46,E,46,easy,low,3,4
1556,8,4,159,DEF,1.116,50,58,44,F,44,hard,high,3,2
1557,8,4,160,ACE,3.287,30,42,44,C,42,easy,low,2,4
1558,8,4,161,BDF,0.956,34,36,53,F,53,easy,high,3,1
1559,8,4,162,DEF,2.885,52,51,52,E,51,hard,high,2,4
1560,8,4,163,ACE,1.418,21,34,49,E,49,easy,low,3,1
1561,8,4,164,ABC,2.743,32,36,36,A,32,hard,low,1,3
1562,8,4,165,ACE,1.912,32,41,53,E,53,easy,low,3,2
1563,8,4,166,DEF,0.886,46,55,48,F,48,hard,high,3,1
1564,8,4,167,ABC,1.96,31,35,30,C,30,hard,low,3,2
1565,8,4,168,DEF,0.949,30,52,54,F,54,hard,high,3,2
1566,8,4,169,BDF,2.456,33,41,49,F,49,easy,high,3,4
1567,8,4,170,DEF,0.908,40,51,52,F,52,hard,high,3,1
1568,8,4,171,ACE,2.813,28,38,45,E,45,easy,low,3,4
1569,8,4,172,DEF,0.824,41,43,48,F,48,hard,high,3,1
1570,8,4,173,ABC,1.946,27,40,42,B,40,hard,low,2,2
1571,8,4,174,DEF,0.938,47,39,55,F,55,hard,high,3,2
1572,8,4,175,BDF,1.218,29,43,51,F,51,easy,high,3,2
1573,8,4,176,DEF,1.314,45,48,51,F,51,hard,high,3,2
1574,8,4,177,ACE,1.681,25,43,39,E,39,easy,low,3,1
1575,8,4,178,DEF,1.098,39,44,58,F,58,hard,high,3,2
1576,8,4,179,BDF,0.818,36,43,48,F,48,easy,high,3,1
1577,8,4,180,ABC,2.232,18,25,38,B,25,hard,low,2,3
1578,8,4,181,DEF,0.922,38,53,41,F,41,hard,high,3,2
1579,8,4,182,ABC,2.477,32,32,41,C,41,hard,low,3,3
1580,8,4,183,ACE,1.949,27,46,42,E,42,easy,low,3,2
1581,8,4,184,BDF,0.792,32,54,43,F,43,easy,high,3,1
1582,8,4,185,ACE,2.008,26,39,42,C,39,easy,low,2,2
1583,8,4,186,BDF,1.381,33,41,49,D,41,easy,high,2,2
1584,8,4,187,DEF,0.724,42,41,53,F,53,hard,high,3,1
1585,8,4,188,ACE,2.404,32,33,46,E,46,easy,low,3,3
1586,8,4,189,DEF,3.475,45,43,47,F,47,hard,high,3,5
1587,8,4,190,BDF,0.583,35,48,51,F,51,easy,high,3,1
1588,8,4,191,ABC,2.043,31,36,45,B,36,hard,low,2,2
1589,8,4,192,DEF,0.808,41,52,50,F,50,hard,high,3,1
1590,8,4,193,ACE,3.749,23,41,37,E,37,easy,low,3,5
1591,8,4,194,DEF,1.0,43,51,51,F,51,hard,high,3,2
1592,8,4,195,BDF,1.111,28,50,45,F,45,easy,high,3,1
1593,8,4,196,DEF,0.725,42,50,53,F,53,hard,high,3,1
1594,8,4,197,BDF,1.258,37,35,59,F,59,easy,high,3,2
1595,8,4,198,DEF,0.836,36,47,56,F,56,hard,high,3,1
1596,8,4,199,BDF,1.808,32,47,44,D,47,easy,high,2,3
1597,8,4,200,ABC,1.657,29,40,34,C,34,hard,low,3,1
1598,9,4,1,BDF,1.028,30,38,43,B,30,easy,high,1,4
1599,9,4,2,ABC,1.321,27,32,40,A,27,hard,low,1,3
1600,9,4,3,ACE,0.524,27,44,39,C,44,easy,low,2,1
1601,9,4,4,BDF,1.372,36,41,49,D,41,easy,high,2,5
1602,9,4,5,DEF,2.065,38,34,47,F,47,hard,high,3,6
1603,9,4,6,ABC,1.548,30,34,46,C,46,hard,low,3,4
1604,9,4,7,ACE,0.6,26,38,45,C,38,easy,low,2,1
1605,9,4,8,DEF,1.523,44,41,62,E,41,hard,high,2,5
1606,9,4,9,ABC,1.153,32,36,43,C,43,hard,low,3,2
1607,9,4,10,BDF,1.391,28,43,60,F,60,easy,high,3,5
1608,9,4,11,DEF,1.382,39,42,50,F,50,hard,high,3,5
1609,9,4,12,BDF,1.713,37,40,46,F,46,easy,high,3,6
1610,9,4,13,ACE,0.975,28,38,41,C,38,easy,low,2,3
1611,9,4,14,BDF,1.107,29,34,44,F,44,easy,high,3,4
1612,9,4,15,ABC,2.476,37,27,29,C,29,hard,low,3,6
1613,9,4,16,BDF,1.046,35,46,51,F,51,easy,high,3,4
1614,9,4,17,DEF,1.8,45,39,57,E,39,hard,high,2,6
1615,9,4,18,ABC,2.163,31,28,33,A,31,hard,low,1,5
1616,9,4,19,ACE,1.111,29,46,40,E,40,easy,low,3,3
1617,9,4,20,BDF,1.276,40,47,57,F,57,easy,high,3,5
1618,9,4,21,ACE,2.763,25,37,42,C,37,easy,low,2,6
1619,9,4,22,ABC,1.056,22,37,42,C,42,hard,low,3,2
1620,9,4,23,ACE,1.646,29,38,40,E,40,easy,low,3,5
1621,9,4,24,ABC,1.507,25,26,37,C,37,hard,low,3,4
1622,9,4,25,ACE,1.47,30,38,45,E,45,easy,low,3,5
1623,9,4,26,ABC,1.976,34,34,35,C,35,hard,low,3,5
1624,9,4,27,DEF,1.643,43,54,58,E,54,hard,high,2,6
1625,9,4,28,ABC,2.842,37,30,35,C,35,hard,low,3,6
1626,9,4,29,DEF,1.688,38,42,52,E,42,hard,high,2,6
1627,9,4,30,ABC,1.256,28,34,37,A,28,hard,low,1,3
1628,9,4,31,ACE,1.221,30,48,44,E,44,easy,low,3,4
1629,9,4,32,DEF,0.78,39,44,51,F,51,hard,high,3,2
1630,9,4,33,ACE,1.763,26,41,47,E,47,easy,low,3,5
1631,9,4,34,DEF,1.21,42,46,42,F,42,hard,high,3,4
1632,9,4,35,ACE,1.133,25,37,53,A,25,easy,low,1,4
1633,9,4,36,ABC,1.465,34,36,39,A,34,hard,low,1,3
1634,9,4,37,ACE,0.898,29,45,47,C,45,easy,low,2,2
1635,9,4,38,DEF,1.291,45,55,51,F,51,hard,high,3,4
1636,9,4,39,BDF,1.076,29,46,50,F,50,easy,high,3,4
1637,9,4,40,ABC,1.398,23,37,34,A,23,hard,low,1,3
1638,9,4,41,ACE,1.984,28,44,49,A,28,easy,low,1,6
1639,9,4,42,ABC,1.102,31,31,30,C,30,hard,low,3,2
1640,9,4,43,DEF,1.242,48,49,45,F,45,hard,high,3,4
1641,9,4,44,ABC,1.707,20,40,32,B,40,hard,low,2,5
1642,9,4,45,BDF,1.411,29,34,47,B,29,easy,high,1,5
1643,9,4,46,DEF,1.155,44,58,56,E,58,hard,high,2,4
1644,9,4,47,ABC,2.805,33,34,41,B,34,hard,low,2,6
1645,9,4,48,BDF,1.685,33,44,52,F,52,easy,high,3,6
1646,9,4,49,ACE,1.854,37,39,43,E,43,easy,low,3,5
1647,9,4,50,BDF,1.108,40,37,51,F,51,easy,high,3,4
1648,9,4,51,ACE,2.496,36,42,44,A,36,easy,low,1,6
1649,9,4,52,DEF,1.108,40,47,46,F,46,hard,high,3,3
1650,9,4,53,BDF,1.132,34,35,46,B,34,easy,high,1,4
1651,9,4,54,ACE,0.814,35,35,46,E,46,easy,low,3,1
1652,9,4,55,DEF,0.909,49,49,47,F,47,hard,high,3,2
1653,9,4,56,ABC,1.531,31,33,42,A,31,hard,low,1,4
1654,9,4,57,BDF,1.421,46,43,55,F,55,easy,high,3,5
1655,9,4,58,ACE,1.022,25,37,45,C,37,easy,low,2,3
1656,9,4,59,DEF,1.122,41,53,57,F,57,hard,high,3,3
1657,9,4,60,BDF,0.903,35,40,50,F,50,easy,high,3,3
1658,9,4,61,ACE,1.229,29,32,47,E,47,easy,low,3,4
1659,9,4,62,ABC,1.543,35,38,26,A,35,hard,low,1,4
1660,9,4,63,BDF,0.963,27,54,44,F,44,easy,high,3,3
1661,9,4,64,ABC,1.468,29,25,39,B,25,hard,low,2,3
1662,9,4,65,DEF,0.801,42,45,52,F,52,hard,high,3,2
1663,9,4,66,ACE,1.293,32,39,49,E,49,easy,low,3,4
1664,9,4,67,DEF,1.459,44,46,45,F,45,hard,high,3,5
1665,9,4,68,ABC,0.935,32,39,36,C,36,hard,low,3,1
1666,9,4,69,ACE,2.997,31,28,45,E,45,easy,low,3,6
1667,9,4,70,ABC,1.387,30,37,39,A,30,hard,low,1,3
1668,9,4,71,DEF,1.525,30,49,48,F,48,hard,high,3,5
1669,9,4,72,ABC,2.881,28,33,43,C,43,hard,low,3,6
1670,9,4,73,ACE,1.415,33,39,47,E,47,easy,low,3,5
1671,9,4,74,DEF,1.245,33,48,50,F,50,hard,high,3,4
1672,9,4,75,BDF,1.116,41,36,54,F,54,easy,high,3,4
1673,9,4,76,ACE,1.136,21,43,51,E,51,easy,low,3,4
1674,9,4,77,DEF,1.181,38,44,50,F,50,hard,high,3,4
1675,9,4,78,BDF,0.857,42,45,48,F,48,easy,high,3,3
1676,9,4,79,DEF,1.028,48,48,55,F,55,hard,high,3,3
1677,9,4,80,ABC,1.135,18,32,35,B,32,hard,low,2,2
1678,9,4,81,DEF,1.431,42,48,53,F,53,hard,high,3,5
1679,9,4,82,BDF,0.698,26,33,46,F,46,easy,high,3,2
1680,9,4,83,DEF,0.923,39,37,50,F,50,hard,high,3,2
1681,9,4,84,BDF,0.65,35,47,56,F,56,easy,high,3,1
1682,9,4,85,ABC,1.724,36,39,40,B,39,hard,low,2,5
1683,9,4,86,BDF,1.146,24,36,48,F,48,easy,high,3,5
1684,9,4,87,DEF,0.957,45,49,53,E,49,hard,high,2,2
1685,9,4,88,ABC,0.886,31,30,45,C,45,hard,low,3,1
1686,9,4,89,ACE,0.877,33,31,44,E,44,easy,low,3,2
1687,9,4,90,DEF,0.723,45,54,55,F,55,hard,high,3,2
1688,9,4,91,ACE,1.104,33,38,52,E,52,easy,low,3,3
1689,9,4,92,ABC,1.201,27,35,45,B,35,hard,low,2,3
1690,9,4,93,ACE,1.156,42,41,47,E,47,easy,low,3,4
1691,9,4,94,DEF,1.427,39,37,51,F,51,hard,high,3,5
1692,9,4,95,BDF,1.223,31,41,56,F,56,easy,high,3,5
1693,9,4,96,ABC,1.509,32,36,42,A,32,hard,low,1,4
1694,9,4,97,BDF,0.879,38,51,48,F,48,easy,high,3,3
1695,9,4,98,DEF,0.721,47,41,59,D,47,hard,high,1,2
1696,9,4,99,ACE,0.962,24,35,56,C,35,easy,low,2,2
1697,9,4,100,ABC,1.478,27,32,36,C,36,hard,low,3,4
1698,9,4,101,DEF,1.003,36,38,41,F,41,hard,high,3,3
1699,9,4,102,BDF,0.941,43,49,47,F,47,easy,high,3,3
1700,9,4,103,ACE,0.89,38,50,52,E,52,easy,low,3,2
1701,9,4,104,DEF,1.27,42,44,59,E,44,hard,high,2,4
1702,9,4,105,BDF,1.353,37,43,45,F,45,easy,high,3,5
1703,9,4,106,DEF,1.567,44,41,53,E,41,hard,high,2,5
1704,9,4,107,ACE,1.632,34,32,46,E,46,easy,low,3,5
1705,9,4,108,ABC,1.723,26,34,34,C,34,hard,low,3,5
1706,9,4,109,ACE,0.855,30,36,46,E,46,easy,low,3,2
1707,9,4,110,BDF,0.898,29,48,48,F,48,easy,high,3,3
1708,9,4,111,DEF,1.25,45,51,53,F,53,hard,high,3,4
1709,9,4,112,ABC,1.699,27,31,41,C,41,hard,low,3,4
1710,9,4,113,DEF,1.059,37,38,52,F,52,hard,high,3,3
1711,9,4,114,BDF,0.76,33,41,46,F,46,easy,high,3,2
1712,9,4,115,ACE,0.96,28,30,50,E,50,easy,low,3,2
1713,9,4,116,DEF,1.597,35,48,49,F,49,hard,high,3,6
1714,9,4,117,ABC,1.335,36,39,33,C,33,hard,low,3,3
1715,9,4,118,ACE,1.065,39,40,43,E,43,easy,low,3,3
1716,9,4,119,ABC,1.145,32,38,35,C,35,hard,low,3,2
1717,9,4,120,ACE,1.037,27,34,47,E,47,easy,low,3,3
1718,9,4,121,BDF,1.17,30,40,49,F,49,easy,high,3,5
1719,9,4,122,DEF,0.62,36,48,50,F,50,hard,high,3,1
1720,9,4,123,BDF,0.594,22,38,48,F,48,easy,high,3,1
1721,9,4,124,DEF,0.501,50,45,46,F,46,hard,high,3,1
1722,9,4,125,ACE,0.921,28,35,42,E,42,easy,low,3,2
1723,9,4,126,BDF,1.015,38,40,43,F,43,easy,high,3,4
1724,9,4,127,ACE,1.561,27,33,51,E,51,easy,low,3,5
1725,9,4,128,DEF,0.631,46,50,58,E,50,hard,high,2,1
1726,9,4,129,ABC,0.975,23,35,47,C,47,hard,low,3,2
1727,9,4,130,BDF,0.627,32,46,56,F,56,easy,high,3,1
1728,9,4,131,ABC,0.901,29,34,38,C,38,hard,low,3,1
1729,9,4,132,DEF,0.904,41,45,52,F,52,hard,high,3,2
1730,9,4,133,BDF,0.719,28,39,45,F,45,easy,high,3,2
1731,9,4,134,DEF,0.489,37,43,49,F,49,hard,high,3,1
1732,9,4,135,BDF,0.777,25,42,54,F,54,easy,high,3,2
1733,9,4,136,ACE,1.28,36,36,46,E,46,easy,low,3,4
1734,9,4,137,BDF,1.021,36,42,54,F,54,easy,high,3,4
1735,9,4,138,ACE,1.131,23,44,46,C,44,easy,low,2,4
1736,9,4,139,BDF,1.193,31,40,43,F,43,easy,high,3,5
1737,9,4,140,ACE,1.111,35,31,48,C,31,easy,low,2,3
1738,9,4,141,BDF,0.783,38,47,49,F,49,easy,high,3,2
1739,9,4,142,ABC,1.65,35,35,44,C,44,hard,low,3,4
1740,9,4,143,ACE,0.984,24,38,50,E,50,easy,low,3,3
1741,9,4,144,DEF,1.303,41,52,47,F,47,hard,high,3,4
1742,9,4,145,ABC,1.088,32,33,37,C,37,hard,low,3,2
1743,9,4,146,BDF,0.563,38,43,45,F,45,easy,high,3,1
1744,9,4,147,ABC,1.048,35,31,33,C,33,hard,low,3,2
1745,9,4,148,ACE,1.301,31,40,43,E,43,easy,low,3,5
1746,9,4,149,BDF,0.52,27,50,52,F,52,easy,high,3,1
1747,9,4,150,ABC,1.366,22,35,43,C,43,hard,low,3,3
1748,9,4,151,ACE,0.928,28,36,40,E,40,easy,low,3,2
1749,9,4,152,BDF,0.825,36,43,50,F,50,easy,high,3,2
1750,9,4,153,DEF,1.294,51,40,54,F,54,hard,high,3,4
1751,9,4,154,ACE,1.116,32,39,48,E,48,easy,low,3,3
1752,9,4,155,BDF,0.676,33,38,54,F,54,easy,high,3,2
1753,9,4,156,ABC,1.254,29,33,39,C,39,hard,low,3,3
1754,9,4,157,DEF,1.32,44,43,53,F,53,hard,high,3,5
1755,9,4,158,BDF,1.031,30,43,51,F,51,easy,high,3,4
1756,9,4,159,ABC,1.556,39,43,40,C,40,hard,low,3,4
1757,9,4,160,ACE,1.37,30,34,52,E,52,easy,low,3,5
1758,9,4,161,ABC,2.074,31,39,32,B,39,hard,low,2,5
1759,9,4,162,DEF,1.0,37,49,41,F,41,hard,high,3,3
1760,9,4,163,BDF,0.773,35,42,47,F,47,easy,high,3,2
1761,9,4,164,ACE,1.265,26,31,50,E,50,easy,low,3,4
1762,9,4,165,ABC,2.162,24,30,37,B,30,hard,low,2,5
1763,9,4,166,ACE,1.097,34,34,43,E,43,easy,low,3,3
1764,9,4,167,DEF,0.594,40,46,42,F,42,hard,high,3,1
1765,9,4,168,ACE,0.929,24,41,41,E,41,easy,low,3,2
1766,9,4,169,ABC,1.716,33,28,40,C,40,hard,low,3,5
1767,9,4,170,ACE,0.85,26,41,44,E,44,easy,low,3,2
1768,9,4,171,DEF,0.601,43,43,49,F,49,hard,high,3,1
1769,9,4,172,ACE,1.012,31,33,36,E,36,easy,low,3,3
1770,9,4,173,ABC,1.573,34,41,36,B,41,hard,low,2,4
1771,9,4,174,DEF,1.221,42,55,54,F,54,hard,high,3,4
1772,9,4,175,ACE,1.523,29,43,51,E,51,easy,low,3,5
1773,9,4,176,DEF,0.84,37,53,44,F,44,hard,high,3,2
1774,9,4,177,BDF,0.882,37,32,55,F,55,easy,high,3,3
1775,9,4,178,ABC,1.352,30,34,47,B,34,hard,low,2,3
1776,9,4,179,BDF,0.966,32,35,49,F,49,easy,high,3,3
1777,9,4,180,ABC,1.191,40,36,36,A,40,hard,low,1,3
1778,9,4,181,BDF,0.682,29,41,38,F,38,easy,high,3,2
1779,9,4,182,ABC,1.014,26,37,29,A,26,hard,low,1,2
1780,9,4,183,DEF,1.417,41,42,47,F,47,hard,high,3,5
1781,9,4,184,ABC,1.029,33,32,34,C,34,hard,low,3,2
1782,9,4,185,ACE,0.97,38,42,39,A,38,easy,low,1,3
1783,9,4,186,DEF,1.54,39,50,40,F,40,hard,high,3,5
1784,9,4,187,BDF,1.5,44,46,53,F,53,easy,high,3,5
1785,9,4,188,ACE,1.188,34,40,45,E,45,easy,low,3,4
1786,9,4,189,BDF,2.511,42,47,44,F,44,easy,high,3,6
1787,9,4,190,ABC,0.975,21,31,41,B,31,hard,low,2,2
1788,9,4,191,BDF,1.52,40,46,52,F,52,easy,high,3,6
1789,9,4,192,DEF,1.138,39,47,51,E,47,hard,high,2,3
1790,9,4,193,ABC,0.926,30,41,38,C,38,hard,low,3,1
1791,9,4,194,DEF,1.088,44,42,48,F,48,hard,high,3,3
1792,9,4,195,BDF,0.883,32,49,49,F,49,easy,high,3,3
1793,9,4,196,ABC,0.823,25,33,37,A,25,hard,low,1,1
1794,9,4,197,BDF,0.835,39,45,53,F,53,easy,high,3,3
1795,9,4,198,ACE,0.77,33,42,51,E,51,easy,low,3,1
1796,9,4,199,BDF,0.718,31,48,51,F,51,easy,high,3,2
1797,9,4,200,DEF,0.869,52,50,55,F,55,hard,high,3,2
1798,10,4,1,DEF,3.067,46,50,52,D,46,hard,high,1,6
1799,10,4,2,ABC,3.183,30,30,35,C,35,hard,low,3,5
1800,10,4,3,BDF,2.314,35,41,53,F,53,easy,high,3,6
1801,10,4,4,ABC,2.653,25,42,39,C,39,hard,low,3,5
1802,10,4,5,ACE,1.297,32,42,49,E,49,easy,low,3,4
1803,10,4,6,DEF,1.661,48,49,51,E,49,hard,high,2,5
1804,10,4,7,ACE,0.365,40,29,45,A,40,easy,low,1,1
1805,10,4,8,ABC,2.567,29,25,35,B,25,hard,low,2,5
1806,10,4,9,BDF,1.142,27,44,55,F,55,easy,high,3,4
1807,10,4,10,DEF,1.697,48,50,53,F,53,hard,high,3,5
1808,10,4,11,BDF,1.139,35,41,57,F,57,easy,high,3,4
1809,10,4,12,ABC,2.884,26,34,36,B,34,hard,low,2,5
1810,10,4,13,ACE,1.695,23,41,48,E,48,easy,low,3,5
1811,10,4,14,ABC,3.954,28,29,31,C,31,hard,low,3,6
1812,10,4,15,BDF,1.206,29,44,51,F,51,easy,high,3,5
1813,10,4,16,DEF,0.945,39,54,50,F,50,hard,high,3,4
1814,10,4,17,BDF,1.143,35,36,47,F,47,easy,high,3,4
1815,10,4,18,ACE,2.514,34,50,50,C,50,easy,low,2,6
1816,10,4,19,DEF,2.088,42,54,57,E,54,hard,high,2,5
1817,10,4,20,BDF,0.781,28,48,50,F,50,easy,high,3,2
1818,10,4,21,ABC,2.726,21,31,37,C,37,hard,low,3,5
1819,10,4,22,BDF,1.228,35,40,51,F,51,easy,high,3,5
1820,10,4,23,ACE,2.625,22,38,48,E,48,easy,low,3,6
1821,10,4,24,ABC,1.945,34,36,30,B,36,hard,low,2,5
1822,10,4,25,DEF,1.204,50,48,56,F,56,hard,high,3,5
1823,10,4,26,ABC,0.889,42,42,34,B,42,hard,low,2,2
1824,10,4,27,ACE,1.465,35,36,43,E,43,easy,low,3,4
1825,10,4,28,ABC,5.391,30,33,38,C,38,hard,low,3,6
1826,10,4,29,ACE,0.978,32,44,45,E,45,easy,low,3,3
1827,10,4,30,BDF,0.819,29,42,42,F,42,easy,high,3,3
1828,10,4,31,ABC,5.993,32,37,34,C,34,hard,low,3,6
1829,10,4,32,BDF,1.451,30,47,51,F,51,easy,high,3,6
1830,10,4,33,DEF,0.746,34,37,59,F,59,hard,high,3,2
1831,10,4,34,BDF,0.668,32,39,52,F,52,easy,high,3,2
1832,10,4,35,DEF,1.01,47,44,52,F,52,hard,high,3,4
1833,10,4,36,ACE,1.387,26,31,43,E,43,easy,low,3,4
1834,10,4,37,BDF,0.727,27,46,44,F,44,easy,high,3,2
1835,10,4,38,ABC,1.629,31,32,26,B,32,hard,low,2,4
1836,10,4,39,DEF,0.905,51,46,47,F,47,hard,high,3,3
1837,10,4,40,ACE,1.295,24,43,45,E,45,easy,low,3,4
1838,10,4,41,ABC,1.349,32,28,32,B,28,hard,low,2,3
1839,10,4,42,BDF,1.562,37,37,50,F,50,easy,high,3,6
1840,10,4,43,ACE,2.333,34,45,37,E,37,easy,low,3,6
1841,10,4,44,BDF,1.373,33,40,46,F,46,easy,high,3,5
1842,10,4,45,ABC,1.737,22,28,45,C,45,hard,low,3,4
1843,10,4,46,DEF,4.504,37,51,47,F,47,hard,high,3,6
1844,10,4,47,ABC,6.225,25,32,43,C,43,hard,low,3,6
1845,10,4,49,ABC,0.868,26,37,33,C,33,hard,low,3,2
1846,10,4,50,BDF,0.878,39,44,45,F,45,easy,high,3,3
1847,10,4,51,DEF,0.955,42,46,51,F,51,hard,high,3,4
1848,10,4,52,BDF,0.637,37,38,53,F,53,easy,high,3,1
1849,10,4,53,ACE,1.59,36,38,42,E,42,easy,low,3,5
1850,10,4,54,ABC,2.252,25,41,35,B,41,hard,low,2,5
1851,10,4,55,BDF,1.087,34,41,48,F,48,easy,high,3,4
1852,10,4,56,ABC,1.924,38,34,40,C,40,hard,low,3,5
1853,10,4,57,BDF,0.913,39,39,42,F,42,easy,high,3,3
1854,10,4,58,DEF,1.417,46,41,55,E,41,hard,high,2,5
1855,10,4,59,BDF,0.635,36,38,54,F,54,easy,high,3,1
1856,10,4,60,ACE,1.747,37,34,42,C,34,easy,low,2,5
1857,10,4,61,DEF,0.85,50,48,56,F,56,hard,high,3,3
1858,10,4,62,ACE,1.485,37,37,41,C,37,easy,low,2,5
1859,10,4,63,DEF,1.276,39,40,44,D,39,hard,high,1,5
1860,10,4,64,ABC,1.342,31,31,44,B,31,hard,low,2,3
1861,10,4,65,DEF,1.716,45,46,49,F,49,hard,high,3,5
1862,10,4,66,BDF,0.856,36,42,45,F,45,easy,high,3,3
1863,10,4,67,ACE,1.024,35,42,44,E,44,easy,low,3,3
1864,10,4,68,ABC,1.276,31,33,45,C,45,hard,low,3,3
1865,10,4,69,BDF,0.787,33,33,54,F,54,easy,high,3,2
1866,10,4,70,DEF,0.743,43,52,55,E,52,hard,high,2,2
1867,10,4,71,BDF,1.342,33,30,49,F,49,easy,high,3,5
1868,10,4,72,ACE,0.635,39,44,45,E,45,easy,low,3,1
1869,10,4,73,BDF,0.819,26,45,49,F,49,easy,high,3,3
1870,10,4,74,ABC,1.09,28,31,38,B,31,hard,low,2,3
1871,10,4,75,ACE,1.946,25,41,39,E,39,easy,low,3,5
1872,10,4,76,ABC,1.73,33,43,44,C,44,hard,low,3,4
1873,10,4,77,BDF,1.344,34,41,47,B,34,easy,high,1,5
1874,10,4,78,ACE,0.97,28,40,53,E,53,easy,low,3,3
1875,10,4,79,ABC,0.888,31,38,36,B,38,hard,low,2,2
1876,10,4,80,BDF,1.513,43,36,43,F,43,easy,high,3,6
1877,10,4,81,ACE,1.044,28,39,39,E,39,easy,low,3,3
1878,10,4,82,DEF,0.703,38,47,58,F,58,hard,high,3,2
1879,10,4,83,ABC,3.217,36,41,39,B,41,hard,low,2,6
1880,10,4,84,DEF,0.802,48,44,38,E,44,hard,high,2,3
1881,10,4,85,BDF,1.05,32,43,43,F,43,easy,high,3,4
1882,10,4,86,DEF,0.692,36,48,52,E,48,hard,high,2,2
1883,10,4,87,ABC,0.82,32,36,39,C,39,hard,low,3,2
1884,10,4,88,ACE,1.032,30,41,53,C,41,easy,low,2,3
1885,10,4,89,BDF,0.796,29,33,47,F,47,easy,high,3,2
1886,10,4,90,ABC,1.042,28,32,46,C,46,hard,low,3,2
1887,10,4,91,ACE,0.891,33,31,47,E,47,easy,low,3,2
1888,10,4,92,ABC,0.855,33,32,34,C,34,hard,low,3,2
1889,10,4,93,DEF,0.75,46,40,51,E,40,hard,high,2,2
1890,10,4,94,ACE,1.263,29,43,52,E,52,easy,low,3,4
1891,10,4,95,BDF,1.051,39,41,45,D,41,easy,high,2,4
1892,10,4,96,ACE,1.288,27,42,45,E,45,easy,low,3,4
1893,10,4,97,DEF,0.545,44,51,44,E,51,hard,high,2,1
1894,10,4,98,ABC,1.498,28,29,32,B,29,hard,low,2,4
1895,10,4,99,DEF,0.871,37,41,48,F,48,hard,high,3,3
1896,10,4,100,ABC,2.273,27,40,35,C,35,hard,low,3,5
1897,10,4,101,DEF,0.871,35,34,59,E,34,hard,high,2,3
1898,10,4,102,ACE,1.189,30,36,41,C,36,easy,low,2,4
1899,10,4,103,ABC,1.457,28,38,41,C,41,hard,low,3,4
1900,10,4,104,DEF,1.236,49,50,46,F,46,hard,high,3,5
1901,10,4,105,ABC,1.439,38,30,34,C,34,hard,low,3,3
1902,10,4,106,DEF,1.152,37,49,48,F,48,hard,high,3,4
1903,10,4,107,ACE,1.122,21,33,46,C,33,easy,low,2,3
1904,10,4,108,BDF,1.317,35,35,54,F,54,easy,high,3,5
1905,10,4,109,DEF,0.687,34,36,55,F,55,hard,high,3,2
1906,10,4,110,ACE,1.309,39,32,47,E,47,easy,low,3,4
1907,10,4,111,ABC,1.84,27,36,35,A,27,hard,low,1,4
1908,10,4,112,BDF,1.159,40,45,48,F,48,easy,high,3,4
1909,10,4,113,ACE,1.737,33,37,53,E,53,easy,low,3,5
1910,10,4,114,BDF,0.876,37,43,53,F,53,easy,high,3,3
1911,10,4,115,ABC,1.439,23,30,48,C,48,hard,low,3,3
1912,10,4,116,BDF,0.784,35,44,53,F,53,easy,high,3,2
1913,10,4,117,ACE,1.047,26,37,46,E,46,easy,low,3,3
1914,10,4,118,BDF,0.772,33,39,50,F,50,easy,high,3,2
1915,10,4,119,ACE,0.81,24,38,42,E,42,easy,low,3,2
1916,10,4,120,BDF,0.798,35,46,48,F,48,easy,high,3,3
1917,10,4,121,ABC,1.329,35,39,41,C,41,hard,low,3,3
1918,10,4,122,DEF,0.691,42,43,45,F,45,hard,high,3,2
1919,10,4,123,ACE,1.007,26,40,55,E,55,easy,low,3,3
1920,10,4,124,BDF,1.418,34,41,48,D,41,easy,high,2,5
1921,10,4,125,ACE,1.11,36,39,46,E,46,easy,low,3,3
1922,10,4,126,ABC,1.452,26,22,39,C,39,hard,low,3,4
1923,10,4,127,BDF,0.884,30,43,51,F,51,easy,high,3,3
1924,10,4,128,DEF,0.689,35,45,45,F,45,hard,high,3,2
1925,10,4,129,ACE,0.869,24,39,44,E,44,easy,low,3,2
1926,10,4,130,BDF,1.084,31,41,49,F,49,easy,high,3,4
1927,10,4,131,DEF,0.856,49,43,58,E,43,hard,high,2,3
1928,10,4,132,ACE,0.653,32,37,51,E,51,easy,low,3,1
1929,10,4,133,DEF,0.908,36,58,41,E,58,hard,high,2,3
1930,10,4,134,ACE,0.559,27,38,42,E,42,easy,low,3,1
1931,10,4,135,BDF,1.17,31,39,52,F,52,easy,high,3,5
1932,10,4,136,ABC,1.193,24,39,29,B,39,hard,low,2,3
1933,10,4,137,DEF,0.621,43,50,44,D,43,hard,high,1,1
1934,10,4,138,ACE,2.751,34,40,47,C,40,easy,low,2,6
1935,10,4,139,BDF,1.296,35,39,56,F,56,easy,high,3,5
1936,10,4,140,DEF,0.928,49,39,50,E,39,hard,high,2,4
1937,10,4,141,BDF,1.041,33,40,46,D,40,easy,high,2,3
1938,10,4,142,ACE,0.895,27,42,38,C,42,easy,low,2,2
1939,10,4,143,DEF,0.399,40,56,51,D,40,hard,high,1,1
1940,10,4,144,ACE,0.591,30,40,43,E,43,easy,low,3,1
1941,10,4,145,ABC,1.81,25,36,41,C,41,hard,low,3,4
1942,10,4,146,ACE,0.926,29,43,49,C,43,easy,low,2,2
1943,10,4,147,ABC,3.847,37,38,36,B,38,hard,low,2,6
1944,10,4,148,DEF,4.33,47,44,47,E,44,hard,high,2,6
1945,10,4,149,ACE,1.483,31,43,42,E,42,easy,low,3,5
1946,10,4,150,BDF,0.749,40,42,50,B,40,easy,high,1,2
1947,10,4,151,ACE,0.853,31,38,38,E,38,easy,low,3,2
1948,10,4,152,DEF,0.792,38,42,49,F,49,hard,high,3,3
1949,10,4,153,BDF,1.067,46,43,40,F,40,easy,high,3,4
1950,10,4,154,DEF,0.828,45,40,49,F,49,hard,high,3,3
1951,10,4,155,ABC,1.156,29,37,40,B,37,hard,low,2,3
1952,10,4,156,DEF,0.32,40,46,57,F,57,hard,high,3,1
1953,10,4,157,BDF,0.644,31,42,49,F,49,easy,high,3,2
1954,10,4,158,ABC,1.963,33,31,37,B,31,hard,low,2,5
1955,10,4,159,BDF,1.783,34,47,54,D,47,easy,high,2,6
1956,10,4,160,ACE,0.854,20,37,49,E,49,easy,low,3,2
1957,10,4,161,ABC,0.258,31,38,34,A,31,hard,low,1,1
1958,10,4,162,DEF,1.068,45,46,43,F,43,hard,high,3,4
1959,10,4,163,BDF,0.738,28,40,55,D,40,easy,high,2,2
1960,10,4,165,ABC,1.649,32,41,33,B,41,hard,low,2,4
1961,10,4,166,ACE,1.255,30,40,47,C,40,easy,low,2,4
1962,10,4,167,DEF,1.844,45,43,46,F,46,hard,high,3,5
1963,10,4,168,ACE,1.021,23,36,47,C,36,easy,low,2,3
1964,10,4,169,BDF,1.059,34,44,60,B,34,easy,high,1,4
1965,10,4,170,DEF,1.694,43,49,47,D,43,hard,high,1,5
1966,10,4,171,ACE,2.079,29,39,41,E,41,easy,low,3,6
1967,10,4,172,DEF,1.247,47,48,48,D,47,hard,high,1,5
1968,10,4,173,ACE,1.714,29,42,52,A,29,easy,low,1,5
1969,10,4,174,ABC,1.002,27,37,28,B,37,hard,low,2,2
1970,10,4,175,DEF,0.786,32,52,62,D,32,hard,high,1,2
1971,10,4,176,ACE,0.87,36,41,45,A,36,easy,low,1,2
1972,10,4,177,DEF,0.687,54,50,50,E,50,hard,high,2,2
1973,10,4,178,ABC,1.205,29,30,38,C,38,hard,low,3,3
1974,10,4,179,BDF,1.147,38,43,53,D,43,easy,high,2,4
1975,10,4,180,ACE,1.634,18,37,55,A,18,easy,low,1,5
1976,10,4,181,ABC,0.803,33,27,33,A,33,hard,low,1,2
1977,10,4,182,DEF,0.645,52,48,52,D,52,hard,high,1,2
1978,10,4,183,ABC,2.406,34,44,35,B,44,hard,low,2,5
1979,10,4,184,DEF,0.809,38,51,49,E,51,hard,high,2,3
1980,10,4,185,ABC,1.21,30,32,42,C,42,hard,low,3,3
1981,10,4,186,ACE,0.816,33,33,49,E,49,easy,low,3,2
1982,10,4,187,DEF,0.759,46,44,53,E,44,hard,high,2,2
1983,10,4,188,ACE,0.867,31,36,40,E,40,easy,low,3,2
1984,10,4,189,DEF,0.936,40,47,56,F,56,hard,high,3,4
1985,10,4,190,ABC,0.453,29,40,35,B,40,hard,low,2,1
1986,10,4,191,ACE,0.316,35,30,43,E,43,easy,low,3,1
1987,10,4,192,BDF,0.513,26,37,50,D,37,easy,high,2,1
1988,10,4,193,ABC,0.56,30,34,46,C,46,hard,low,3,2
1989,10,4,194,BDF,1.032,33,45,41,F,41,easy,high,3,3
1990,10,4,195,ABC,0.411,34,25,47,B,25,hard,low,2,1
1991,10,4,196,BDF,0.369,36,42,46,F,46,easy,high,3,1
1992,10,4,197,DEF,0.926,44,45,52,F,52,hard,high,3,4
1993,10,4,198,ABC,1.165,35,24,47,A,35,hard,low,1,3
1994,10,4,199,DEF,1.044,41,44,54,F,54,hard,high,3,4
1995,10,4,200,BDF,0.756,38,38,54,F,54,easy,high,3,2
1996,11,4,1,BDF,1.553,32,36,47,B,32,easy,high,1,6
1997,11,4,2,ABC,3.317,36,46,42,C,42,hard,low,3,6
1998,11,4,3,BDF,0.739,42,38,46,F,46,easy,high,3,3
1999,11,4,4,DEF,1.02,39,45,47,F,47,hard,high,3,5
2000,11,4,5,ABC,0.805,27,32,37,C,37,hard,low,3,1
2001,11,4,6,DEF,0.582,44,49,51,F,51,hard,high,3,2
2002,11,4,7,BDF,1.063,40,35,52,F,52,easy,high,3,5
2003,11,4,8,ACE,1.434,31,33,46,C,33,easy,low,2,4
2004,11,4,9,DEF,0.968,46,45,48,E,45,hard,high,2,5
2005,11,4,10,ACE,1.89,26,38,50,E,50,easy,low,3,5
2006,11,4,11,DEF,1.001,37,48,51,E,48,hard,high,2,5
2007,11,4,12,ACE,0.946,34,36,36,E,36,easy,low,3,2
2008,11,4,13,DEF,0.493,40,39,45,F,45,hard,high,3,1
2009,11,4,14,ACE,2.347,34,31,52,E,52,easy,low,3,6
2010,11,4,15,BDF,0.72,34,43,58,F,58,easy,high,3,3
2011,11,4,16,ABC,1.914,29,27,43,C,43,hard,low,3,5
2012,11,4,17,ACE,0.722,29,40,40,E,40,easy,low,3,1
2013,11,4,18,ABC,0.689,23,37,45,C,45,hard,low,3,1
2014,11,4,19,ACE,1.51,28,41,51,E,51,easy,low,3,4
2015,11,4,20,BDF,0.716,29,43,54,F,54,easy,high,3,3
2016,11,4,21,DEF,0.838,40,41,52,E,41,hard,high,2,4
2017,11,4,22,ABC,1.508,29,34,34,C,34,hard,low,3,4
2018,11,4,23,BDF,0.437,22,46,50,F,50,easy,high,3,1
2019,11,4,24,ACE,1.488,28,38,47,E,47,easy,low,3,4
2020,11,4,25,DEF,1.169,48,45,48,E,45,hard,high,2,5
