id,trial,block,rt,resp,correct,f_cor,f_inc,cor_option,inc_option,pair_type
1,1,0,1.2440824150808112,0,0,43,39,1,0,0
1,2,0,1.1018207586012068,3,1,60,50,3,2,3
1,3,0,1.0299232879742704,1,0,44,36,3,1,2
1,4,0,1.3680067775831048,2,0,55,55,3,2,3
1,5,0,1.0393291640184543,3,1,52,49,3,2,3
1,6,0,1.2414981543915928,0,0,60,35,2,0,1
1,7,0,1.0175488060376665,3,1,56,51,3,2,3
1,8,0,1.1387933335563505,1,1,36,40,1,0,0
1,9,0,1.1202802511425034,2,1,48,32,2,0,1
1,10,0,1.138936012326667,1,0,49,50,3,1,2
1,11,0,1.069218659651597,3,1,62,37,3,1,2
1,12,0,1.2465987497516835,3,1,50,42,3,1,2
1,13,0,1.4034675719831284,2,0,49,56,3,2,3
1,14,0,1.2634143644072535,2,1,48,38,2,0,1
1,15,0,1.4325259125807857,2,0,57,53,3,2,3
1,16,0,1.1712896181061296,2,1,48,28,2,0,1
1,17,0,1.216336855701229,3,1,53,41,3,1,2
1,18,0,1.27985894599351,3,1,59,39,3,1,2
1,19,0,1.2527417876081015,2,1,53,36,2,0,1
1,20,0,1.5069100215796425,0,0,48,31,1,0,0
1,21,0,1.2636369159808964,1,1,40,34,1,0,0
1,22,0,1.3068064600029174,2,0,54,47,3,2,3
1,23,0,1.181139914625419,3,1,55,38,3,1,2
1,24,0,1.663861105971591,2,1,46,38,2,0,1
1,25,0,1.6161203799210853,3,1,51,52,3,2,3
1,26,0,1.5274250441516417,1,1,43,41,1,0,0
1,27,0,1.5656906027943478,3,1,61,53,3,2,3
1,28,0,1.3598112817262518,1,1,38,34,1,0,0
1,29,0,1.3258899161610316,3,1,56,40,3,1,2
1,30,0,1.247650067003633,2,1,42,37,2,0,1
1,31,0,1.2967264438375423,2,1,52,26,2,0,1
1,32,0,1.4086893418962063,1,1,45,35,1,0,0
1,33,0,1.2309170558473852,2,1,50,42,2,0,1
1,34,0,1.4394352514864297,3,1,50,35,3,1,2
1,35,0,1.3044979994247117,1,1,44,34,1,0,0
1,36,0,1.8457731243715896,3,1,51,40,3,2,3
1,37,0,1.898259796877028,3,1,60,40,3,1,2
1,38,0,1.5284118487552405,2,0,48,56,3,2,3
1,39,0,1.2224061648148563,3,1,64,43,3,1,2
1,40,0,1.0051831988585036,3,1,51,46,3,2,3
1,41,0,1.2244992418918628,3,1,58,37,3,1,2
1,42,0,1.2428088875903995,2,1,57,41,2,0,1
1,43,0,1.7508995930584206,3,1,54,39,3,1,2
1,44,0,1.4776192306408116,1,1,40,42,1,0,0
1,45,0,1.5318992865377368,2,1,47,33,2,0,1
1,46,0,1.3847292072996424,3,1,52,47,3,1,2
1,47,0,1.2119049390748842,3,1,58,34,3,1,2
1,48,0,1.2807781659148532,3,1,46,35,3,1,2
1,49,0,1.2199007529206938,1,1,46,37,1,0,0
1,50,0,1.28387818646479,1,1,45,33,1,0,0
1,51,0,1.226722026939569,2,1,58,39,2,0,1
1,52,0,1.4863427744812725,1,1,38,36,1,0,0
1,53,0,1.0694927530794305,2,1,51,40,2,0,1
1,54,0,1.3583626484733031,1,1,30,29,1,0,0
1,55,0,1.0812671649728145,2,1,44,43,2,0,1
1,56,0,1.1695948810402117,3,1,57,46,3,1,2
1,57,0,1.4767600859895538,2,0,53,55,3,2,3
1,58,0,1.325771813638312,3,1,56,47,3,2,3
1,59,0,1.1721948432214049,3,1,53,54,3,2,3
1,60,0,1.4197906376784886,2,1,49,32,2,0,1
1,61,0,2.4884447263129914,2,0,59,52,3,2,3
1,62,0,1.2281423292406544,2,1,45,35,2,0,1
1,63,0,1.176391920149399,2,1,54,37,2,0,1
1,64,0,1.0478933035874434,3,1,54,42,3,1,2
1,65,0,1.3436486443124522,1,1,33,36,1,0,0
1,66,0,1.7855555153537352,3,1,55,43,3,2,3
1,67,0,1.6416882107050697,0,0,41,31,1,0,0
1,68,0,1.247007671202482,1,1,32,30,1,0,0
1,69,0,1.4615176925080955,3,1,48,50,3,2,3
1,70,0,1.3591108586733751,1,1,34,44,1,0,0
1,71,0,1.451641113058031,2,1,44,33,2,0,1
1,72,0,1.4411535407889462,1,1,42,46,1,0,0
1,73,0,1.3549158297655597,2,1,45,39,2,0,1
1,74,0,1.2959239610909208,1,1,37,36,1,0,0
1,75,0,1.5526406153894643,3,1,47,51,3,2,3
1,76,0,1.6154988056623552,2,1,49,38,2,0,1
1,77,0,1.1817099470317771,0,0,44,30,1,0,0
1,78,0,1.4866298387050847,3,1,57,50,3,2,3
1,79,0,2.0937802296375594,3,1,52,39,3,1,2
1,80,0,1.1090386659461728,3,1,54,41,3,1,2
1,1,1,1.274764153358774,1,0,55,44,3,1,2
1,2,1,1.8701903089031475,2,0,52,45,3,2,3
1,3,1,2.36402474282022,0,0,57,36,2,0,1
1,4,1,1.1335333339247882,2,0,46,43,3,2,3
1,5,1,2.0689507102870266,2,1,53,38,2,0,1
1,6,1,1.1790785818684526,2,1,55,39,2,0,1
1,7,1,1.1125694534994182,3,1,60,47,3,2,3
1,8,1,1.135401470069155,3,1,54,46,3,2,3
1,9,1,1.259248007788301,2,1,50,26,2,0,1
1,10,1,1.4602342662528829,3,1,53,37,3,1,2
1,11,1,1.5221609484797227,1,1,36,33,1,0,0
1,12,1,1.3146974834608045,3,1,58,43,3,1,2
1,13,1,1.4333597983113575,1,1,39,36,1,0,0
1,14,1,1.1698348407899175,1,1,40,29,1,0,0
1,15,1,1.0712765790403864,1,1,33,43,1,0,0
1,16,1,1.1717811430544316,3,1,49,40,3,1,2
1,17,1,1.849992046853004,1,1,34,34,1,0,0
1,18,1,1.128029278502254,3,1,60,44,3,2,3
1,19,1,1.7749870462694162,2,1,55,42,2,0,1
1,20,1,1.1277391422481742,2,1,50,35,2,0,1
1,21,1,1.1467662778386511,3,1,47,42,3,1,2
1,22,1,1.2817403942708552,3,1,57,53,3,2,3
1,23,1,1.2635034533041107,3,1,52,44,3,2,3
1,24,1,1.9327703097087576,1,1,42,39,1,0,0
1,25,1,1.300853205390922,3,1,61,37,3,1,2
1,26,1,1.0943714249242475,3,1,49,52,3,2,3
1,27,1,1.5361158196619726,3,1,58,36,3,1,2
1,28,1,1.7259287602846598,1,1,44,37,1,0,0
1,29,1,1.3848066907476095,3,1,54,43,3,1,2
1,30,1,1.4148217983120048,2,1,40,36,2,0,1
1,31,1,1.1082703168767694,2,1,58,35,2,0,1
1,32,1,1.5823208715828514,2,0,54,45,3,2,3
1,33,1,1.2872755113394303,2,1,56,44,2,0,1
1,34,1,1.97574631578118,1,1,39,42,1,0,0
1,35,1,1.8613391051103465,2,0,51,48,3,2,3
1,36,1,1.215496143236123,3,1,51,34,3,1,2
1,37,1,1.4188601536425267,2,1,53,30,2,0,1
1,38,1,1.9263391836184385,1,1,41,37,1,0,0
1,39,1,1.4055872733260912,2,1,50,30,2,0,1
1,40,1,0.9964060651454928,3,1,59,45,3,1,2
1,41,1,1.2394928008661736,3,1,53,50,3,2,3
1,42,1,1.0322494980637202,2,1,48,46,2,0,1
1,43,1,1.6620632852027484,2,0,62,51,3,2,3
1,44,1,2.1063871619144265,1,1,38,34,1,0,0
1,45,1,1.089468122217113,3,1,51,42,3,2,3
1,46,1,1.3533112056084065,3,1,59,45,3,1,2
1,47,1,1.5725743414413955,2,0,48,52,3,2,3
1,48,1,1.4190601769896602,2,1,48,39,2,0,1
1,49,1,1.598911886643691,3,1,56,51,3,2,3
1,50,1,1.0222128316681849,3,1,48,52,3,2,3
1,51,1,1.0835005314611408,2,1,49,34,2,0,1
1,52,1,0.9938238524764528,2,1,49,37,2,0,1
1,53,1,1.116555584303569,2,1,54,33,2,0,1
1,54,1,1.6548941890150672,0,0,38,38,1,0,0
1,55,1,1.253484195083729,0,0,35,31,1,0,0
1,56,1,1.4197930270356665,3,1,56,46,3,1,2
1,57,1,1.8253011102324308,1,1,35,33,1,0,0
1,58,1,1.252672837580576,3,1,54,47,3,1,2
1,59,1,1.3108864584191906,2,1,47,41,2,0,1
1,60,1,1.2594736313931207,1,1,41,40,1,0,0
1,61,1,1.018483727451894,1,1,40,28,1,0,0
1,62,1,1.1256976070244489,3,1,64,50,3,1,2
1,63,1,1.0671853165113134,3,1,55,30,3,1,2
1,64,1,1.3845431787594862,1,1,39,31,1,0,0
1,65,1,1.1424971788510447,3,1,44,48,3,1,2
1,66,1,0.9871312624209168,3,1,53,46,3,1,2
1,67,1,1.741653121285708,2,1,56,38,2,0,1
1,68,1,1.5166995601539384,1,1,38,41,1,0,0
1,69,1,1.7987727577756232,3,1,56,51,3,2,3
1,70,1,1.413965384354924,1,1,41,35,1,0,0
1,71,1,1.3260530751367696,2,1,49,36,2,0,1
1,72,1,2.4049182532562554,3,1,57,40,3,1,2
1,73,1,1.2723096006429842,1,1,43,32,1,0,0
1,74,1,1.3866447892560243,1,1,32,32,1,0,0
1,75,1,1.1905290651675386,3,1,50,54,3,2,3
1,76,1,1.145762406396898,2,1,46,40,2,0,1
1,77,1,1.3021222955030678,3,1,57,60,3,2,3
1,78,1,1.2039944594216652,3,1,52,47,3,2,3
1,79,1,1.0890178990175627,3,1,50,37,3,1,2
1,80,1,1.0144593669301685,3,1,55,42,3,1,2
1,1,2,0.9820412485014458,2,1,44,37,2,0,1
1,2,2,1.2706264690277749,1,0,58,39,3,1,2
1,3,2,1.2599224892455825,3,1,53,53,3,2,3
1,4,2,1.5176665672242962,3,1,61,41,3,1,2
1,5,2,1.6137931458215462,3,1,53,43,3,2,3
1,6,2,1.5211895040310992,2,1,51,31,2,0,1
1,7,2,1.4769768348387515,0,0,43,39,1,0,0
1,8,2,0.933008562773466,3,1,52,35,3,1,2
1,9,2,1.5215246967391067,1,1,38,31,1,0,0
1,10,2,1.7926071916926958,1,1,46,41,1,0,0
1,11,2,1.2151333022484323,1,1,43,32,1,0,0
1,12,2,1.2354213358694324,2,1,49,42,2,0,1
1,13,2,1.4301013975009482,1,1,40,34,1,0,0
1,14,2,1.4358099136479725,3,1,60,42,3,1,2
1,15,2,1.1146813040977577,3,1,59,58,3,2,3
1,16,2,1.1104190318465044,3,1,53,37,3,1,2
1,17,2,1.0623557425478791,3,1,47,46,3,2,3
1,18,2,1.163403714699598,1,1,36,44,1,0,0
1,19,2,1.2624582801136055,1,1,45,35,1,0,0
1,20,2,0.9941952268827664,3,1,58,34,3,1,2
1,21,2,1.0702030748980178,2,0,51,56,3,2,3
1,22,2,1.4474358440475044,1,1,43,36,1,0,0
1,23,2,1.5275144743854985,2,0,55,50,3,2,3
1,24,2,1.545770871548484,3,1,54,55,3,2,3
1,25,2,1.5210604787316695,2,1,48,33,2,0,1
1,26,2,1.290255040007651,1,1,30,40,1,0,0
1,27,2,1.6900836206823442,2,1,53,36,2,0,1
1,28,2,1.117756748399188,3,1,56,50,3,1,2
1,29,2,1.6130527863660973,2,1,47,42,2,0,1
1,30,2,1.2276695778136857,3,1,48,39,3,1,2
1,31,2,1.8120108217408413,2,0,56,52,3,2,3
1,32,2,1.1559885147007662,2,1,44,34,2,0,1
1,33,2,1.0926855626157703,2,1,53,35,2,0,1
1,34,2,2.336632808334798,3,1,44,55,3,2,3
1,35,2,1.070277827650898,2,1,45,37,2,0,1
1,36,2,1.4912750908124508,1,0,62,40,3,1,2
1,37,2,0.9838697895793302,3,1,51,45,3,1,2
1,38,2,2.9751971049172425,3,1,54,56,3,2,3
1,39,2,1.0438378814178575,2,0,52,49,3,2,3
1,40,2,1.218380438946042,1,1,37,26,1,0,0
1,41,2,1.0116819096283507,3,1,55,44,3,1,2
1,42,2,1.6127049641972917,2,0,54,52,3,2,3
1,43,2,1.0858301549187672,1,1,40,40,1,0,0
1,44,2,1.021934983536994,3,1,57,42,3,1,2
1,45,2,1.1502718064703004,1,1,39,32,1,0,0
1,46,2,1.2411861725840936,1,1,41,36,1,0,0
1,47,2,1.0397237493252758,2,0,48,48,3,2,3
1,48,2,0.8887658559460759,2,0,59,51,3,2,3
1,49,2,1.821864190291308,3,1,57,42,3,2,3
1,50,2,1.2899300874023538,2,1,48,29,2,0,1
1,51,2,1.1832917016254214,1,0,52,37,3,1,2
1,52,2,1.0157868256292204,2,1,50,39,2,0,1
1,53,2,1.1371371675468254,2,1,40,30,2,0,1
1,54,2,1.0774452171544908,2,1,60,38,2,0,1
1,55,2,0.9180890738780364,3,1,55,34,3,1,2
1,56,2,1.6542292649864976,2,0,49,49,3,2,3
1,57,2,1.5768318349792023,1,1,46,34,1,0,0
1,58,2,1.262481832350204,2,1,51,39,2,0,1
1,59,2,1.0214274157597174,2,1,46,28,2,0,1
1,60,2,1.0007413834646286,1,1,35,46,1,0,0
1,61,2,0.9735556163896036,2,1,57,37,2,0,1
1,62,2,1.205433876581992,3,1,50,52,3,2,3
1,63,2,0.9980318521820664,2,1,45,36,2,0,1
1,64,2,1.2201031656250052,3,1,56,42,3,1,2
1,65,2,1.2595811524761302,1,1,32,30,1,0,0
1,66,2,1.0747274937893962,3,1,51,41,3,1,2
1,67,2,1.045806370572791,2,1,54,43,2,0,1
1,68,2,1.3635543807495196,3,1,57,44,3,1,2
1,69,2,1.0017449135702918,1,1,38,41,1,0,0
1,70,2,1.2402754860804637,3,1,46,47,3,2,3
1,71,2,1.199654021049355,1,1,40,35,1,0,0
1,72,2,1.4033436667350545,3,1,64,50,3,2,3
1,73,2,1.2438458686983722,1,1,38,38,1,0,0
1,74,2,1.0570831134555192,3,1,49,36,3,1,2
1,75,2,0.8723793016115451,3,1,54,47,3,1,2
1,76,2,1.1015374490807517,2,1,50,33,2,0,1
1,77,2,0.965255330144828,3,1,60,33,3,1,2
1,78,2,1.0126711035900369,2,1,54,38,2,0,1
1,79,2,1.6465153953131448,3,1,50,47,3,2,3
1,80,2,0.962010241468306,1,1,48,33,1,0,0
2,1,0,0.88008029554112,0,0,52,46,2,0,1
2,2,0,1.3946424810656026,3,1,55,40,3,1,2
2,3,0,1.0289004555797874,3,1,49,41,3,1,2
2,4,0,1.195417788377199,0,0,33,32,1,0,0
2,5,0,1.0515848675468078,0,0,42,40,1,0,0
2,6,0,1.055160005693324,0,0,42,35,2,0,1
2,7,0,1.5622667618308697,2,0,54,47,3,2,3
2,8,0,1.3676217548891143,1,0,59,38,3,1,2
2,9,0,1.1369103146862471,0,0,50,39,1,0,0
2,10,0,1.1235941709610415,3,1,58,51,3,2,3
2,11,0,0.9521800526126754,3,1,52,40,3,1,2
2,12,0,1.0910431422980764,2,0,53,46,3,2,3
2,13,0,1.2441589977324838,0,0,39,36,1,0,0
2,14,0,0.8527865017204022,0,0,46,33,1,0,0
2,15,0,1.0244088341478346,3,1,61,37,3,1,2
2,16,0,1.0813287608152675,0,0,48,33,1,0,0
2,17,0,1.1025884423434036,0,0,34,42,1,0,0
2,18,0,1.0758633118939542,3,1,47,53,3,2,3
2,19,0,1.1121942794379718,2,1,50,26,2,0,1
2,20,0,1.138408090721896,0,0,45,41,1,0,0
2,21,0,0.9364482842302096,0,0,47,29,2,0,1
2,22,0,0.8511149863961691,3,1,55,54,3,2,3
2,23,0,1.0912581830689303,2,1,50,43,2,0,1
2,24,0,0.7557447459230389,3,1,56,41,3,1,2
2,25,0,0.7525368837586939,1,0,51,39,3,1,2
2,26,0,0.9897620113069934,3,1,60,43,3,2,3
2,27,0,0.8642877696065625,1,0,52,39,3,1,2
2,28,0,0.7647307194620225,3,1,62,58,3,2,3
2,29,0,1.0579910345068129,0,0,50,35,2,0,1
2,30,0,0.9176858063192412,3,1,48,40,3,1,2
2,31,0,1.006944451554773,2,1,51,38,2,0,1
2,32,0,0.9662932125274892,0,0,36,40,1,0,0
2,33,0,1.10154976128797,1,1,45,30,1,0,0
2,34,0,0.9789857380183092,2,1,55,39,2,0,1
2,35,0,0.6931009800737229,1,0,56,40,3,1,2
2,36,0,1.018977860017003,3,1,53,47,3,2,3
2,37,0,0.9755454270216432,3,1,48,49,3,2,3
2,38,0,0.7400867058040603,2,1,60,36,2,0,1
2,39,0,1.0997529761816622,1,0,54,35,3,1,2
2,40,0,0.7292906351112833,2,0,57,55,3,2,3
2,41,0,0.7310532867622896,3,1,44,45,3,2,3
2,42,0,1.119108352217154,0,0,32,34,1,0,0
2,43,0,1.2747756834623942,1,0,60,43,3,1,2
2,44,0,0.98482085226442,1,1,34,39,1,0,0
2,45,0,1.1136084285062682,3,1,49,43,3,1,2
2,46,0,1.3135055502707471,1,0,54,36,3,1,2
2,47,0,1.00276378590479,0,0,53,30,2,0,1
2,48,0,1.3059009576818426,1,1,43,38,1,0,0
2,49,0,1.1320363985523727,2,1,44,28,2,0,1
2,50,0,1.5366540407012508,1,0,56,30,3,1,2
2,51,0,1.0629195641704428,2,1,46,37,2,0,1
2,52,0,1.0144538118020137,2,0,55,56,3,2,3
2,53,0,0.9474904571397929,2,1,48,31,2,0,1
2,54,0,1.5198443377894364,1,0,53,44,3,1,2
2,55,0,1.0605855184721804,2,1,54,41,2,0,1
2,56,0,1.576100027409666,0,0,41,33,1,0,0
2,57,0,1.11131329494674,1,1,38,36,1,0,0
2,58,0,1.3504126905463636,2,0,58,53,3,2,3
2,59,0,1.3209084141353742,1,1,37,37,1,0,0
2,60,0,1.7177890258890331,1,0,46,44,3,1,2
2,61,0,1.327439850877454,1,1,35,32,1,0,0
2,62,0,1.3574042462696525,2,0,51,40,3,2,3
2,63,0,1.591196572181616,3,1,59,48,3,2,3
2,64,0,1.1398133650918678,3,1,57,52,3,2,3
2,65,0,1.6026425438703882,1,1,47,42,1,0,0
2,66,0,1.1483975878572892,2,1,50,36,2,0,1
2,67,0,1.2336066399129777,2,1,49,34,2,0,1
2,68,0,1.303979585462912,3,1,50,37,3,1,2
2,69,0,1.8047740416432128,3,1,50,52,3,2,3
2,70,0,1.2344845523921322,3,1,64,46,3,1,2
2,71,0,1.2097357490265497,2,1,48,38,2,0,1
2,72,0,1.2495548144042914,2,1,44,31,2,0,1
2,73,0,1.4741918648369392,3,1,51,42,3,1,2
2,74,0,1.4679761625593528,3,1,54,56,3,2,3
2,75,0,1.1039053110634995,2,1,51,44,2,0,1
2,76,0,1.3063187511797878,3,1,52,49,3,2,3
2,77,0,1.1159653436197914,1,1,38,37,1,0,0
2,78,0,1.1633446280939097,2,0,57,57,3,2,3
2,79,0,0.9776227891334202,2,1,45,35,2,0,1
2,1,1,1.6409720252440818,0,0,43,39,1,0,0
2,2,1,1.941464878210354,0,0,49,28,2,0,1
2,3,1,1.1577238719492016,1,1,30,36,1,0,0
2,4,1,1.3379969873813025,1,1,37,39,1,0,0
2,5,1,1.3936727495902232,2,0,55,51,3,2,3
2,6,1,1.3906126852889429,3,1,52,50,3,2,3
2,7,1,1.2387631810606765,3,1,56,43,3,2,3
2,8,1,1.7043462470428494,0,0,51,36,2,0,1
2,9,1,1.7265637133377822,1,1,44,29,1,0,0
2,10,1,1.788947382254264,3,1,52,48,3,2,3
2,11,1,1.6454165425066094,0,0,48,35,1,0,0
2,12,1,1.3599178339454738,3,1,50,33,3,1,2
2,13,1,1.832853246279228,0,0,57,42,2,0,1
2,14,1,2.3129532709581326,0,0,38,35,1,0,0
2,15,1,1.1489304111000822,3,1,54,43,3,1,2
2,16,1,1.022537979442859,3,1,59,45,3,1,2
2,17,1,1.2320392316287323,1,1,40,37,1,0,0
2,18,1,1.068728395655853,1,1,46,46,1,0,0
2,19,1,1.2525496838043182,3,1,54,45,3,2,3
2,20,1,0.9070300241291988,3,1,60,48,3,2,3
2,21,1,1.5327949122038262,2,1,52,26,2,0,1
2,22,1,0.9965897264437444,3,1,50,56,3,2,3
2,23,1,1.2756358465458106,1,1,40,33,1,0,0
2,24,1,1.2490923060804562,1,0,57,36,3,1,2
2,25,1,1.7721998022307162,1,0,54,46,3,1,2
2,26,1,1.8478962015269644,2,1,47,37,2,0,1
2,27,1,1.0601513409164909,3,1,51,56,3,2,3
2,28,1,1.6499064572644784,2,0,55,45,3,2,3
2,29,1,2.2475730259684497,2,1,53,41,2,0,1
2,30,1,1.0916623231842095,3,1,52,42,3,2,3
2,31,1,1.4991707276949455,1,1,32,34,1,0,0
2,32,1,2.0116108362799423,2,1,46,30,2,0,1
2,33,1,1.2441934725220565,1,1,42,38,1,0,0
2,34,1,1.2574020958627443,3,1,61,51,3,2,3
2,35,1,0.9055520454985526,3,1,49,60,3,2,3
2,36,1,1.8869462401489727,2,1,44,32,2,0,1
2,37,1,1.115978655667277,1,0,58,39,3,1,2
2,38,1,1.4764194141534972,2,1,40,40,2,0,1
2,39,1,1.4176982650305945,2,1,54,40,2,0,1
2,40,1,1.1616420513246342,2,1,49,31,2,0,1
2,41,1,1.0800869856984718,3,1,55,50,3,1,2
2,42,1,1.3486954363916084,1,1,40,35,1,0,0
2,43,1,1.0768173419801317,1,1,35,36,1,0,0
2,44,1,1.221432260279471,0,0,34,41,1,0,0
2,45,1,1.4480138936824003,0,0,55,30,2,0,1
2,46,1,1.6576666984101394,1,1,41,38,1,0,0
2,47,1,1.2815829185265102,2,1,46,36,2,0,1
2,48,1,1.1054665753263178,1,1,37,34,1,0,0
2,49,1,1.1754405007786772,3,1,53,41,3,1,2
2,50,1,1.5453413465029369,2,1,53,39,2,0,1
2,51,1,1.2370169134683238,1,0,56,40,3,1,2
2,52,1,1.2216397916909043,2,1,47,32,2,0,1
2,53,1,1.0214501462105543,1,0,51,37,3,1,2
2,54,1,1.0300657717552897,3,1,58,44,3,1,2
2,55,1,0.978355293092136,3,1,44,50,3,2,3
2,56,1,0.8781377605791931,1,0,48,39,3,1,2
2,57,1,0.9152155681322256,3,1,57,48,3,2,3
2,58,1,1.0000283307681457,1,1,45,43,1,0,0
2,59,1,1.0348407008696086,3,1,53,52,3,2,3
2,60,1,1.1570739709532063,2,1,55,34,2,0,1
2,61,1,1.0394555440752808,3,1,54,38,3,1,2
2,62,1,1.1247611938106274,3,1,47,35,3,1,2
2,63,1,0.9727195182267678,3,1,57,47,3,2,3
2,64,1,0.9106072102831604,3,1,48,42,3,1,2
2,65,1,1.0151832437495614,2,1,50,44,2,0,1
2,66,1,1.1967496758179552,3,1,64,54,3,2,3
2,67,1,1.3718519140502394,3,1,46,39,3,1,2
2,68,1,1.0314768488124173,3,1,56,41,3,1,2
2,69,1,1.3914346189021671,2,1,58,37,2,0,1
2,70,1,0.945141392719961,3,1,62,47,3,1,2
2,71,1,0.9962279118135484,3,1,53,38,3,1,2
2,72,1,1.0337661796847897,3,1,49,34,3,1,2
2,73,1,0.9267298067334196,3,1,59,44,3,2,3
2,74,1,1.2008811892910671,3,1,51,49,3,2,3
2,75,1,1.9246364018963504,1,1,42,33,1,0,0
2,76,1,1.3203271213851622,3,1,60,53,3,2,3
2,77,1,1.1405356290133568,2,1,52,42,2,0,1
2,78,1,1.5311145221812694,2,1,50,31,2,0,1
2,79,1,1.1800085811510144,1,1,36,38,1,0,0
2,80,1,1.3395169501627606,1,1,43,33,1,0,0
2,1,2,1.2721593540854883,2,0,49,50,3,2,3
2,2,2,1.2525247663825212,2,1,54,33,2,0,1
2,3,2,1.3221423385584783,1,0,61,40,3,1,2
2,4,2,0.9096309934511736,3,1,48,43,3,1,2
2,5,2,1.4537210074695397,1,1,42,39,1,0,0
2,6,2,1.3057261943895355,2,0,56,53,3,2,3
2,7,2,1.2641728081280237,3,1,55,35,3,1,2
2,8,2,1.3406163887693765,3,1,44,38,3,1,2
2,9,2,1.5993862121995337,1,1,50,37,1,0,0
2,10,2,1.345126100932248,1,1,38,34,1,0,0
2,11,2,1.7589055039170491,3,1,53,43,3,2,3
2,12,2,1.1298989615579558,3,1,57,51,3,2,3
2,13,2,1.2632518874943344,3,1,60,45,3,1,2
2,14,2,1.4197455897010514,2,1,45,35,2,0,1
2,15,2,2.130535550505556,0,0,46,37,1,0,0
2,16,2,1.93258335304472,2,1,50,38,2,0,1
2,17,2,1.3200301603210391,2,1,44,28,2,0,1
2,18,2,1.787806983500559,3,1,51,32,3,1,2
2,19,2,0.9449645814192992,3,1,52,39,3,1,2
2,20,2,1.7691479299592174,1,1,43,35,1,0,0
2,21,2,1.3365425608353692,2,1,55,41,2,0,1
2,22,2,1.12605041443112,2,0,55,40,3,2,3
2,23,2,0.9389352478110596,3,1,56,57,3,2,3
2,24,2,1.3978312284934873,3,1,51,48,3,2,3
2,25,2,1.314913555316707,2,1,51,42,2,0,1
2,26,2,1.0055763826521795,2,1,49,32,2,0,1
2,27,2,0.9305063322681236,3,1,52,48,3,1,2
2,28,2,1.1438278008126872,3,1,54,38,3,1,2
2,29,2,1.3924162970870384,2,1,54,30,2,0,1
2,30,2,1.0258465353008432,2,1,42,38,2,0,1
2,31,2,1.5340462446883976,3,1,58,55,3,2,3
2,32,2,0.834032215838306,3,1,49,44,3,1,2
2,33,2,2.004594021797857,1,1,37,32,1,0,0
2,34,2,1.0525627910519688,3,1,60,41,3,1,2
2,35,2,1.196430186672842,1,1,39,37,1,0,0
2,36,2,1.054414872356574,3,1,52,48,3,2,3
2,37,2,0.965491417654448,2,1,49,31,2,0,1
2,38,2,1.5599593402275789,3,1,59,41,3,1,2
2,39,2,0.8980013837699516,3,1,53,34,3,1,2
2,40,2,1.4335320924456028,3,1,50,51,3,2,3
2,41,2,1.2112420584253414,2,1,52,46,2,0,1
2,42,2,0.99934463765112,2,1,47,39,2,0,1
2,43,2,0.9442778162920148,3,1,64,45,3,2,3
2,44,2,1.6051493048553311,1,1,33,36,1,0,0
2,45,2,1.3407785226836495,1,1,41,40,1,0,0
2,46,2,1.073998942545586,3,1,57,36,3,1,2
2,47,2,0.8990782942964871,2,1,58,34,2,0,1
2,48,2,0.9638246810145574,3,1,50,46,3,1,2
2,49,2,1.0816871621000246,2,0,57,52,3,2,3
2,50,2,1.1817623581027874,1,1,42,29,1,0,0
2,51,2,1.6346511919236946,2,1,48,36,2,0,1
2,52,2,0.9367322745820276,3,1,48,53,3,2,3
2,53,2,1.1750609367518337,2,1,46,36,2,0,1
2,54,2,0.9445310865330612,2,1,47,40,2,0,1
2,55,2,0.9961309727996196,3,1,53,56,3,2,3
2,56,2,1.3039741241100271,1,1,35,33,1,0,0
2,57,2,0.965721477145962,3,1,56,40,3,1,2
2,58,2,1.106274514220786,1,1,45,39,1,0,0
2,59,2,1.0773675732853008,3,1,54,46,3,2,3
2,60,2,0.8714592086435005,3,1,54,37,3,1,2
2,61,2,0.9080710945263492,3,1,55,43,3,1,2
2,62,2,1.217633547998048,1,1,34,33,1,0,0
2,63,2,1.0813096460806264,2,1,60,36,2,0,1
2,64,2,1.2146489186343388,0,0,44,38,1,0,0
2,65,2,0.9722283377996064,1,1,40,26,1,0,0
2,66,2,1.00669254665263,1,1,30,44,1,0,0
2,67,2,1.0434692971266486,3,1,47,50,3,2,3
2,68,2,0.9768363543144004,3,1,51,47,3,2,3
2,69,2,0.9571956225890972,3,1,62,40,3,1,2
2,70,2,0.8548792238871101,3,1,58,53,3,2,3
2,71,2,0.8595241045341027,3,1,54,44,3,2,3
2,72,2,1.2829397233890631,2,1,50,30,2,0,1
2,73,2,0.964725462908973,2,1,52,35,2,0,1
2,74,2,1.2167286700887416,3,1,59,56,3,2,3
2,75,2,1.227743194897812,1,1,37,41,1,0,0
2,76,2,0.9874979391925078,3,1,46,47,3,1,2
2,77,2,1.39107963096194,1,1,36,34,1,0,0
2,78,2,1.0392824874552389,1,1,39,42,1,0,0
2,79,2,1.7639115165256951,2,1,49,31,2,0,1
2,80,2,1.3360227083048812,1,1,42,43,1,0,0
3,1,0,2.456583973536908,0,0,50,41,2,0,1
3,2,0,2.1701681453896526,2,1,48,34,2,0,1
3,3,0,1.4949569353784682,1,0,52,46,3,1,2
3,4,0,1.7793506907100891,2,0,55,48,3,2,3
3,5,0,1.853334867068952,2,0,48,52,3,2,3
3,6,0,1.6441496593297416,2,0,54,52,3,2,3
3,7,0,1.3121733630478047,1,0,53,39,3,1,2
3,8,0,1.845676658814228,0,0,47,34,2,0,1
3,9,0,1.2442042047787254,1,0,57,40,3,1,2
3,10,0,1.3757921975438876,0,0,41,40,1,0,0
3,11,0,1.4536914946302204,1,1,41,37,1,0,0
3,12,0,1.2446209756944882,1,0,57,39,3,1,2
3,13,0,1.9823304150268088,2,0,51,45,3,2,3
3,14,0,1.207052542148631,3,1,59,33,3,1,2
3,15,0,1.224804047696125,3,1,54,42,3,1,2
3,16,0,1.902152701996784,1,1,43,28,1,0,0
3,17,0,1.3409848286510169,2,0,64,50,3,2,3
3,18,0,1.2069228345744705,3,1,50,51,3,2,3
3,19,0,1.189712004811554,3,1,53,34,3,1,2
3,20,0,1.6513593524450698,1,1,38,26,1,0,0
3,21,0,1.1396855000921278,3,1,54,44,3,2,3
3,22,0,1.0657781242716735,3,1,51,45,3,1,2
3,23,0,1.277372138199098,2,1,53,38,2,0,1
3,24,0,1.2013904651967096,2,0,59,46,3,2,3
3,25,0,1.6327005765506328,0,0,48,32,1,0,0
3,26,0,1.3596176630317132,0,0,38,38,1,0,0
3,27,0,1.1653143514267867,3,1,60,42,3,1,2
3,28,0,1.2087923303233763,2,1,60,42,2,0,1
3,29,0,1.1195245056860583,2,1,49,35,2,0,1
3,30,0,1.195818842209519,2,1,54,39,2,0,1
3,31,0,1.1575267769339916,3,1,49,44,3,2,3
3,32,0,1.1458599219640746,3,1,61,39,3,1,2
3,33,0,1.036599722767278,3,1,54,49,3,2,3
3,34,0,1.2668583152963038,3,1,53,51,3,2,3
3,35,0,1.0184666038830985,3,1,56,48,3,2,3
3,36,0,1.3611779086159004,2,1,57,29,2,0,1
3,37,0,1.506027818178154,0,0,35,38,1,0,0
3,38,0,1.7204224917031752,1,1,46,33,1,0,0
3,39,0,1.078939347031337,1,1,45,44,1,0,0
3,40,0,1.1685939050412344,3,1,58,50,3,2,3
3,41,0,1.0007161223447838,3,1,49,52,3,2,3
3,42,0,1.0895009569348986,3,1,50,55,3,2,3
3,43,0,1.0671854514530423,2,1,49,33,2,0,1
3,44,0,1.2275855924917778,1,1,38,36,1,0,0
3,45,0,1.1660707513856323,2,1,56,42,2,0,1
3,46,0,1.1300437899599274,0,0,40,37,1,0,0
3,47,0,1.2797485174933172,2,1,47,30,2,0,1
3,48,0,1.3459072310952251,1,1,44,34,1,0,0
3,49,0,1.7628358444835612,1,1,37,36,1,0,0
3,50,0,1.409764317923873,3,1,56,47,3,2,3
3,51,0,1.3587295074839858,0,0,43,31,1,0,0
3,52,0,1.0418726769967182,3,1,44,55,3,2,3
3,53,0,1.8110338137403232,1,1,37,43,1,0,0
3,54,0,1.159093849232704,3,1,60,41,3,1,2
3,55,0,1.3794147935577712,2,1,43,39,2,0,1
3,56,0,1.259795737877539,2,1,51,36,2,0,1
3,57,0,1.9824594399296984,3,1,47,43,3,1,2
3,58,0,1.1690103346218166,2,1,56,39,2,0,1
3,59,0,1.3376830882152717,2,1,46,35,2,0,1
3,60,0,1.031970186372746,2,0,55,50,3,2,3
3,61,0,1.1573424556445389,1,1,37,32,1,0,0
3,62,0,1.0459533455505152,3,1,52,30,3,1,2
3,63,0,1.074289330494139,3,1,57,47,3,1,2
3,64,0,1.1338722114151096,2,1,54,40,2,0,1
3,65,0,0.9870579147736862,2,1,42,36,2,0,1
3,66,0,1.554159226970114,1,1,35,31,1,0,0
3,67,0,1.0537590108360746,1,1,40,46,1,0,0
3,68,0,0.931476171182112,3,1,51,53,3,2,3
3,69,0,1.0416456887423922,3,1,58,40,3,1,2
3,70,0,0.9223478299754788,3,1,46,36,3,1,2
3,71,0,1.10891545011782,2,1,40,35,2,0,1
3,72,0,1.3315301704933518,3,1,56,58,3,2,3
3,73,0,0.9808828102304687,3,1,52,44,3,1,2
3,74,0,0.9595950666071076,3,1,62,32,3,1,2
3,75,0,1.833321671028898,1,1,50,33,1,0,0
3,76,0,1.9343782074884075,1,0,55,36,3,1,2
3,77,0,1.4019944928895711,2,1,45,41,2,0,1
3,78,0,1.2414980951762118,1,1,34,37,1,0,0
3,79,0,0.9860001153720076,3,1,48,42,3,1,2
3,80,0,1.0927665157851152,2,1,53,30,2,0,1
3,1,1,2.952584713552824,3,1,49,52,3,2,3
3,2,1,1.3665041112180916,1,1,41,39,1,0,0
3,3,1,1.2716789996948137,0,0,48,35,2,0,1
3,4,1,1.224178037981801,1,1,32,26,1,0,0
3,5,1,1.3262677976717896,3,1,58,38,3,1,2
3,6,1,1.2692579054200903,3,1,47,55,3,2,3
3,7,1,1.0811665626160902,2,0,54,42,3,2,3
3,8,1,0.960754584053575,3,1,55,45,3,1,2
3,9,1,1.5590375971050892,2,1,54,43,2,0,1
3,10,1,1.3045527017238785,3,1,52,49,3,2,3
3,11,1,1.1989369440279916,3,1,48,44,3,1,2
3,12,1,1.4956491642224137,1,1,34,37,1,0,0
3,13,1,1.6684261385344143,2,1,60,33,2,0,1
3,14,1,1.4030468309192656,3,1,54,45,3,1,2
3,15,1,1.5453377465773883,1,0,60,37,3,1,2
3,16,1,1.1931475488518115,3,1,53,50,3,2,3
3,17,1,1.337005536806828,3,1,48,45,3,2,3
3,18,1,1.5361233887670096,3,1,61,33,3,1,2
3,19,1,1.3446265394668444,1,1,42,36,1,0,0
3,20,1,1.4034905673579487,1,1,47,34,1,0,0
3,21,1,1.2005610193918983,3,1,64,38,3,1,2
3,22,1,1.3631214742154043,2,1,51,30,2,0,1
3,23,1,1.3002641597149704,1,0,49,40,3,1,2
3,24,1,1.121205584116069,3,1,54,49,3,2,3
3,25,1,1.5136505275168015,2,1,53,38,2,0,1
3,26,1,1.8388970487094407,1,1,37,44,1,0,0
3,27,1,1.0400635976711785,2,1,51,31,2,0,1
3,28,1,1.1421458479744615,2,1,47,33,2,0,1
3,29,1,1.4195425623456686,3,1,56,43,3,2,3
3,30,1,1.304297382604091,1,1,35,41,1,0,0
3,31,1,1.266295452691338,0,0,40,38,1,0,0
3,32,1,1.3131567512627953,1,1,39,34,1,0,0
3,33,1,1.3790785778728605,2,1,58,40,2,0,1
3,34,1,1.4187844557072822,2,1,40,32,2,0,1
3,35,1,1.2657028938783697,3,1,58,42,3,1,2
3,36,1,1.442393964911389,1,1,30,39,1,0,0
3,37,1,1.5625792965547591,1,1,42,35,1,0,0
3,38,1,1.1586661555729734,3,1,51,34,3,1,2
3,39,1,1.0540488048645784,3,1,46,56,3,2,3
3,40,1,1.1520353678424726,2,0,59,49,3,2,3
3,41,1,1.437217608690844,3,1,55,43,3,1,2
3,42,1,1.4115580371417311,3,1,53,55,3,2,3
3,43,1,1.5196071771979405,3,1,62,44,3,2,3
3,44,1,1.3928808291184396,2,1,51,41,2,0,1
3,45,1,1.500660313953631,3,1,54,36,3,1,2
3,46,1,1.331002465468373,1,1,50,36,1,0,0
3,47,1,1.3561643695347811,1,1,46,46,1,0,0
3,48,1,1.1860382084378216,3,1,53,52,3,2,3
3,49,1,1.4233249034787152,1,1,40,31,1,0,0
3,50,1,1.4908209704371984,2,1,48,32,2,0,1
3,51,1,1.1310698451397911,1,1,43,39,1,0,0
3,52,1,1.1603076390592832,2,1,50,42,2,0,1
3,53,1,1.5539049318576872,1,1,40,28,1,0,0
3,54,1,1.2415762610562524,2,1,47,40,2,0,1
3,55,1,1.37199552031052,3,1,55,46,3,1,2
3,56,1,2.165013293320044,2,0,52,53,3,2,3
3,57,1,1.3463093245754862,3,1,60,45,3,2,3
3,58,1,1.4360673073088035,2,1,46,35,2,0,1
3,59,1,1.2872080683573586,3,1,57,36,3,1,2
3,60,1,1.8832041320738424,0,0,50,30,2,0,1
3,61,1,2.026565135218334,0,0,52,42,2,0,1
3,62,1,1.5855593826872791,1,1,41,36,1,0,0
3,63,1,1.4653470855218984,2,1,48,37,2,0,1
3,64,1,1.287203972328825,1,0,50,38,3,1,2
3,65,1,1.218525859764668,3,1,51,35,3,1,2
3,66,1,1.3721713082068163,3,1,57,43,3,1,2
3,67,1,1.413724153631847,1,1,48,29,1,0,0
3,68,1,1.156866974984041,3,1,50,56,3,2,3
3,69,1,1.303875832986705,1,0,57,39,3,1,2
3,70,1,1.2868264550206732,2,1,47,36,2,0,1
3,71,1,1.2793454000056954,3,1,51,39,3,1,2
3,72,1,1.4180908615207954,1,0,59,44,3,1,2
3,73,1,1.577170374654088,3,1,56,44,3,2,3
3,74,1,1.3256445186425478,3,1,52,53,3,2,3
3,75,1,1.299661360830214,1,1,37,34,1,0,0
3,76,1,1.45493190864363,1,1,41,37,1,0,0
3,77,1,1.1374808126656717,2,1,57,33,2,0,1
3,78,1,1.5236817017084832,2,1,46,38,2,0,1
3,79,1,1.0591196883460725,3,1,56,54,3,2,3
3,80,1,1.6172551351401123,3,1,44,50,3,2,3
3,1,2,1.6746637075139006,0,0,48,31,1,0,0
3,2,2,1.8278705395523505,1,1,38,37,1,0,0
3,3,2,1.5646484737007995,2,1,50,38,2,0,1
3,4,2,1.4769791242479189,2,1,44,28,2,0,1
3,5,2,2.094174866972935,1,0,44,41,3,1,2
3,6,2,1.779505315791539,2,0,62,45,3,2,3
3,7,2,1.6263097478313284,0,0,57,38,2,0,1
3,8,2,1.6376987555240703,1,1,38,34,1,0,0
3,9,2,1.6359077669922044,1,1,37,32,1,0,0
3,10,2,1.2303568972174617,1,0,56,42,3,1,2
3,11,2,2.1709440014856227,1,1,39,36,1,0,0
3,12,2,1.5963339860818448,1,1,44,36,1,0,0
3,13,2,1.756834479822828,3,1,53,39,3,1,2
3,14,2,1.4442371778086454,3,1,61,60,3,2,3
3,15,2,1.0417231719502524,3,1,50,42,3,2,3
3,16,2,1.0039513023148174,3,1,59,58,3,2,3
3,17,2,1.6217245850812103,1,1,45,42,1,0,0
3,18,2,1.395809489610656,2,1,48,33,2,0,1
3,19,2,1.1440941922746788,2,0,51,49,3,2,3
3,20,2,1.5582378475091898,2,1,53,36,2,0,1
3,21,2,1.0641468808571517,3,1,56,46,3,2,3
3,22,2,1.137704387562735,3,1,48,42,3,1,2
3,23,2,1.1363270979263689,3,1,60,40,3,1,2
3,24,2,1.2350738155564611,1,1,47,40,1,0,0
3,25,2,1.0498271646574722,3,1,49,34,3,1,2
3,26,2,1.5073276246066598,3,1,57,41,3,1,2
3,27,2,1.5065773686901591,2,1,50,32,2,0,1
3,28,2,1.3119637829140631,3,1,52,30,3,1,2
3,29,2,1.5123111261445956,1,1,33,39,1,0,0
3,30,2,1.024407552120465,3,1,49,50,3,1,2
3,31,2,1.0038311521411742,3,1,55,47,3,2,3
3,32,2,1.0934969742293106,2,1,53,29,2,0,1
3,33,2,1.2507110876422305,2,1,50,37,2,0,1
3,34,2,1.6829568002094677,2,1,51,33,2,0,1
3,35,2,1.324506164010927,2,0,57,56,3,2,3
3,36,2,0.9964985781662108,3,1,46,40,3,2,3
3,37,2,1.3494974002160234,2,1,48,42,2,0,1
3,38,2,1.4003192171676346,1,1,37,30,1,0,0
3,39,2,1.0829722285843673,2,1,55,31,2,0,1
3,40,2,3.1862249190780867,1,1,46,43,1,0,0
3,41,2,1.1923699860772103,3,1,64,52,3,2,3
3,42,2,1.575293710855476,3,1,54,50,3,2,3
3,43,2,1.0446398856938686,1,1,35,26,1,0,0
3,44,2,1.9669317366106045,1,0,55,42,3,1,2
3,45,2,1.0061491630276578,1,0,51,32,3,1,2
3,46,2,1.327400008260156,3,1,53,40,3,1,2
3,47,2,1.0931235529496917,3,1,58,43,3,2,3
3,48,2,1.0699393480554136,3,1,47,52,3,2,3
3,49,2,1.3448579650867032,2,1,54,44,2,0,1
3,50,2,1.1115512445612694,3,1,58,48,3,2,3
3,51,2,1.2815688608980054,3,1,54,43,3,1,2
3,52,2,1.3718439672493332,1,1,39,34,1,0,0
3,53,2,1.0886807271954242,2,1,56,39,2,0,1
3,54,2,1.3253837381525957,3,1,60,45,3,2,3
3,55,2,1.3541934970771763,1,1,35,30,1,0,0
3,56,2,1.0569982868364605,3,1,57,44,3,2,3
3,57,2,1.2310214778681257,1,1,40,39,1,0,0
3,58,2,0.9509104618373384,3,1,50,53,3,2,3
3,59,2,1.5158893485167937,3,1,52,49,3,2,3
3,60,2,1.3207115347922809,3,1,59,40,3,1,2
3,61,2,1.7390645421473891,3,1,51,43,3,1,2
3,62,2,1.5951062014901254,1,1,36,41,1,0,0
3,63,2,1.334298403197863,3,1,56,46,3,1,2
3,64,2,1.4684645046691005,2,1,55,34,2,0,1
3,65,2,1.0735790108565195,2,1,52,38,2,0,1
3,66,2,1.3259445527419302,3,1,48,38,3,1,2
3,67,2,1.4611380747373914,2,1,47,35,2,0,1
3,68,2,1.3286025340084957,2,0,54,51,3,2,3
3,69,2,1.1921460698440571,1,1,45,33,1,0,0
3,70,2,1.0978251111810096,2,1,47,40,2,0,1
3,71,2,1.4451707310081474,1,1,43,37,1,0,0
3,72,2,1.1680190956858496,1,1,37,36,1,0,0
3,73,2,1.1932304934316562,1,0,53,44,3,1,2
3,74,2,1.2024540673055526,2,0,55,51,3,2,3
3,75,2,1.2782749711823271,1,1,36,46,1,0,0
3,76,2,1.666734478696526,2,1,49,35,2,0,1
3,77,2,1.0565412383048172,2,1,46,35,2,0,1
3,78,2,1.1826903876790311,1,0,54,41,3,1,2
3,79,2,1.570782617955956,2,1,54,41,2,0,1
3,80,2,1.1638892747878344,1,0,52,34,3,1,2
4,1,0,2.8578869202538044,1,1,41,34,1,0,0
4,2,0,1.299026817723643,0,0,30,39,1,0,0
4,3,0,1.5421438682278676,0,0,43,36,1,0,0
4,4,0,1.0501271987577638,3,1,51,52,3,2,3
4,5,0,2.2108427340026537,3,1,55,39,3,1,2
4,6,0,1.1490374161967338,2,1,44,35,2,0,1
4,7,0,1.1873806818312005,3,1,51,50,3,2,3
4,8,0,1.7044377398524375,2,1,57,37,2,0,1
4,9,0,1.58897308124142,1,1,41,28,1,0,0
4,10,0,1.790060781651846,3,1,60,53,3,2,3
4,11,0,1.2233516641990718,2,1,49,35,2,0,1
4,12,0,1.3880471739612403,1,1,36,38,1,0,0
4,13,0,1.4420461438112395,2,0,52,46,3,2,3
4,14,0,1.1108317088601325,3,1,61,44,3,1,2
4,15,0,1.265014761063867,0,0,40,39,1,0,0
4,16,0,1.3803346933291325,3,1,50,50,3,2,3
4,17,0,1.009508930535958,3,1,60,37,3,1,2
4,18,0,1.9748568693994453,3,1,53,41,3,1,2
4,19,0,1.5773372878211376,2,1,48,32,2,0,1
4,20,0,1.1448352321276616,3,1,62,33,3,1,2
4,21,0,1.2478861932086147,3,1,54,40,3,1,2
4,22,0,1.1120332106002024,0,0,43,33,1,0,0
4,23,0,0.8644381767626328,3,1,54,38,3,1,2
4,24,0,1.0034024344749923,2,1,56,36,2,0,1
4,25,0,1.3077820789876569,3,1,48,35,3,1,2
4,26,0,1.747944390950579,3,1,64,52,3,2,3
4,27,0,1.2756384940676069,2,1,47,36,2,0,1
4,28,0,1.6607228739649145,3,1,54,43,3,2,3
4,29,0,2.442661572118596,1,1,42,37,1,0,0
4,30,0,1.4976818184459262,3,1,57,54,3,2,3
4,31,0,2.8399695255466213,2,1,49,30,2,0,1
4,32,0,1.0800828216997616,3,1,46,51,3,2,3
4,33,0,2.647279707898633,0,0,43,42,1,0,0
4,34,0,1.329639511932328,2,1,47,43,2,0,1
4,35,0,2.029815333960869,1,1,35,35,1,0,0
4,36,0,2.2869121302865096,1,1,48,26,1,0,0
4,37,0,2.231410600588788,3,1,59,55,3,2,3
4,38,0,3.0660528995267677,2,1,50,38,2,0,1
4,39,0,1.5163931600418437,0,0,38,42,1,0,0
4,40,0,2.9943037894754525,3,1,44,44,3,2,3
4,41,0,2.035299916336953,1,1,39,33,1,0,0
4,42,0,1.9635596810148848,0,0,50,36,1,0,0
4,43,0,1.557025081690881,3,1,57,45,3,1,2
4,44,0,1.3806091272490448,2,1,45,37,2,0,1
4,45,0,1.9304514813466085,3,1,53,32,3,1,2
4,46,0,1.832693613301672,2,1,53,31,2,0,1
4,47,0,2.452681482231128,1,1,40,40,1,0,0
4,48,0,1.5144724639358174,2,1,40,34,2,0,1
4,49,0,1.8734702612964609,3,1,55,51,3,2,3
4,50,0,1.83115316518888,0,0,42,46,1,0,0
4,51,0,1.416073226069784,2,1,45,41,2,0,1
4,52,0,1.912313242426535,2,1,52,34,2,0,1
4,53,0,1.2803417589784658,3,1,59,37,3,1,2
4,54,0,1.1034789960776834,3,1,49,48,3,2,3
4,55,0,1.2071269533371378,3,1,52,53,3,2,3
4,56,0,1.1989161225483258,3,1,56,45,3,1,2
4,57,0,1.7706616485756967,1,1,46,40,1,0,0
4,58,0,1.3097655808651325,3,1,57,47,3,2,3
4,59,0,1.9711496221243576,2,1,60,29,2,0,1
4,60,0,3.0780133032185404,1,1,38,41,1,0,0
4,61,0,1.113836828553758,2,0,51,56,3,2,3
4,62,0,1.3609147387742269,3,1,47,42,3,1,2
4,63,0,1.038874725352798,3,1,58,37,3,1,2
4,64,0,2.5093548174590983,2,1,42,31,2,0,1
4,65,0,1.4870683255139738,3,1,53,58,3,2,3
4,66,0,1.07682374822798,3,1,56,34,3,1,2
4,67,0,1.0310827134962892,3,1,56,44,3,1,2
4,68,0,1.0740497128172135,3,1,52,39,3,1,2
4,69,0,1.55337790950216,3,1,50,48,3,2,3
4,70,0,2.029280460885275,3,1,55,49,3,2,3
4,71,0,1.8521040104551505,3,1,49,54,3,2,3
4,72,0,2.463747586329191,2,1,51,30,2,0,1
4,73,0,1.2181090888479955,3,1,54,46,3,1,2
4,74,0,1.240690494858427,3,1,48,47,3,1,2
4,75,0,1.9888977143145887,0,0,34,39,1,0,0
4,76,0,2.231615402024545,2,1,50,38,2,0,1
4,77,0,1.1187841485043464,2,1,55,33,2,0,1
4,78,0,1.9141622580300464,2,1,46,44,2,0,1
4,79,0,1.539376318194627,3,1,58,40,3,1,2
4,80,0,2.267901778597661,0,0,36,32,1,0,0
4,1,1,2.9375403416142944,3,1,51,44,3,1,2
4,2,1,2.16737362983622,2,1,50,46,2,0,1
4,3,1,3.330618804116966,1,1,37,32,1,0,0
4,4,1,1.3307413436414208,3,1,60,38,3,1,2
4,5,1,1.9835861891460809,3,1,50,51,3,2,3
4,6,1,2.4962226082352568,2,0,56,56,3,2,3
4,7,1,1.534530033619376,0,0,40,38,2,0,1
4,8,1,2.6497318637248104,2,0,46,51,3,2,3
4,9,1,1.9727102090437256,3,1,57,49,3,2,3
4,10,1,1.5155715649580088,2,1,42,33,2,0,1
4,11,1,2.4478894700314413,3,1,50,52,3,2,3
4,12,1,1.4699663818446425,2,0,56,55,3,2,3
4,13,1,1.3768588716739032,2,1,49,38,2,0,1
4,14,1,1.4129571722660332,3,1,54,40,3,1,2
4,15,1,2.7695840517026227,3,1,64,39,3,1,2
4,16,1,1.6260377032613178,1,1,41,36,1,0,0
4,17,1,1.4960082494017115,3,1,47,34,3,1,2
4,18,1,1.5001186141635117,1,1,44,37,1,0,0
4,19,1,1.5178318901089367,3,1,61,50,3,1,2
4,20,1,1.3767923112081917,2,1,53,29,2,0,1
4,21,1,1.6852597923261785,1,1,39,34,1,0,0
4,22,1,1.528635507038416,3,1,62,42,3,1,2
4,23,1,1.4300946148487128,1,1,40,40,1,0,0
4,24,1,1.3558056256897544,3,1,53,38,3,1,2
4,25,1,1.2551231931811344,1,1,42,35,1,0,0
4,26,1,1.277079954821602,1,1,46,39,1,0,0
4,27,1,1.049185794836376,2,1,48,35,2,0,1
4,28,1,2.596661327039328,2,0,55,58,3,2,3
4,29,1,1.2661186407876812,3,1,51,35,3,1,2
4,30,1,1.2445441751569888,2,1,43,37,2,0,1
4,31,1,2.842687923233825,3,1,52,43,3,1,2
4,32,1,1.4246448487156158,2,0,58,54,3,2,3
4,33,1,1.1009295595704316,2,1,46,38,2,0,1
4,34,1,1.4463715500787655,1,1,34,32,1,0,0
4,35,1,1.2630595900482149,1,1,37,40,1,0,0
4,36,1,1.5497375640297832,1,1,43,28,1,0,0
4,37,1,1.8338524480768683,3,1,59,60,3,2,3
4,38,1,1.2577743477322656,3,1,53,36,3,1,2
4,39,1,1.2891966902716376,2,1,45,26,2,0,1
4,40,1,2.491628912091983,2,0,52,51,3,2,3
4,41,1,1.6413728932348022,3,1,54,45,3,2,3
4,42,1,1.0673916182277026,3,1,59,40,3,1,2
4,43,1,1.2757610335920615,3,1,48,57,3,2,3
4,44,1,1.1746130191586417,2,1,50,36,2,0,1
4,45,1,1.1235969821827894,2,1,50,42,2,0,1
4,46,1,1.3700127011015866,1,1,48,31,1,0,0
4,47,1,1.287373616181867,2,1,47,39,2,0,1
4,48,1,1.450051149158753,1,1,30,33,1,0,0
4,49,1,1.3431960014568176,3,1,49,32,3,1,2
4,50,1,1.29729112557834,1,1,41,34,1,0,0
4,51,1,1.214588552213172,1,1,39,41,1,0,0
4,52,1,1.1450434469170432,2,0,55,55,3,2,3
4,53,1,1.6784422939526848,3,1,57,43,3,1,2
4,54,1,1.366442329452184,2,1,46,39,2,0,1
4,55,1,1.4479430597402825,1,1,37,33,1,0,0
4,56,1,1.8189016021278803,3,1,44,41,3,1,2
4,57,1,1.5279425955232,2,0,55,56,3,2,3
4,58,1,1.621015972121313,1,1,47,30,1,0,0
4,59,1,1.1415399770685326,3,1,51,36,3,1,2
4,60,1,1.4635605343537463,3,1,49,48,3,2,3
4,61,1,1.8323167786638803,1,1,42,37,1,0,0
4,62,1,1.896443520712637,3,1,57,48,3,2,3
4,63,1,1.1960031634989718,2,0,48,54,3,2,3
4,64,1,1.109424381678764,1,1,33,36,1,0,0
4,65,1,1.4507918476738269,2,0,54,47,3,2,3
4,66,1,1.5973641372893326,2,1,52,41,2,0,1
4,67,1,1.4500091648642408,2,1,44,42,2,0,1
4,68,1,1.6799359790729795,3,1,56,35,3,1,2
4,69,1,1.4321689120297378,2,1,50,35,2,0,1
4,70,1,1.2939207766612526,3,1,54,45,3,1,2
4,71,1,1.4016511091540451,2,0,53,52,3,2,3
4,72,1,1.2166532919945894,3,1,58,47,3,2,3
4,73,1,1.060617810830081,2,1,53,30,2,0,1
4,74,1,1.8775352284064863,3,1,52,45,3,1,2
4,75,1,1.2530714241584064,2,1,49,44,2,0,1
4,76,1,1.2890652760179364,1,1,38,34,1,0,0
4,77,1,1.033158034684675,2,1,53,36,2,0,1
4,78,1,1.2665879774049245,1,1,46,31,1,0,0
4,79,1,1.587605007667662,3,1,60,40,3,1,2
4,80,1,1.3104530310101836,2,1,44,43,2,0,1
4,1,2,1.335438123171116,3,1,54,55,3,2,3
4,2,2,1.3109087141983764,0,0,40,35,1,0,0
4,3,2,0.9599428877063474,2,0,50,45,3,2,3
4,4,2,0.8086212528596661,1,0,49,33,3,1,2
4,5,2,1.015139263266974,1,1,38,41,1,0,0
4,6,2,1.6599459938624932,2,0,60,50,3,2,3
4,7,2,1.2616396334469755,3,1,56,43,3,1,2
4,8,2,1.1434258569333906,3,1,53,34,3,1,2
4,9,2,1.0819724562552435,3,1,58,46,3,2,3
4,10,2,2.0802705563455675,0,0,50,36,2,0,1
4,11,2,1.3306682977963646,2,1,60,37,2,0,1
4,12,2,1.122756272299739,2,1,53,38,2,0,1
4,13,2,1.0294060724318117,2,0,50,48,3,2,3
4,14,2,1.2522406130119634,3,1,64,40,3,1,2
4,15,2,1.1332735085597958,3,1,44,37,3,1,2
4,16,2,2.1125950491968983,3,1,57,46,3,1,2
4,17,2,1.0414531753940537,2,0,52,45,3,2,3
4,18,2,3.777743682130677,3,1,51,44,3,1,2
4,19,2,1.9228724629792848,3,1,59,52,3,2,3
4,20,2,2.301824746635248,0,0,32,36,1,0,0
4,21,2,2.188593447650419,2,1,48,35,2,0,1
4,22,2,2.477713678721557,0,0,43,37,1,0,0
4,23,2,1.6684561760775978,3,1,55,50,3,2,3
4,24,2,1.7318592863975937,2,1,47,28,2,0,1
4,25,2,1.0203446330251609,3,1,54,55,3,2,3
4,26,2,1.3552161388979584,0,0,30,36,1,0,0
4,27,2,1.0891913654359089,3,1,51,43,3,1,2
4,28,2,1.0386699239206791,3,1,61,37,3,1,2
4,29,2,1.968096374092056,2,1,49,42,2,0,1
4,30,2,1.441648146359512,3,1,55,58,3,2,3
4,31,2,1.6093211276220245,3,1,48,50,3,2,3
4,32,2,0.9502533905724704,2,1,53,31,2,0,1
4,33,2,1.2159897353521956,2,0,57,47,3,2,3
4,34,2,2.348327642699587,3,1,53,38,3,1,2
4,35,2,1.0626729932100716,3,1,53,42,3,1,2
4,36,2,2.1841257043888618,2,1,56,32,2,0,1
4,37,2,1.2619454702526127,3,1,60,53,3,2,3
4,38,2,1.512138410269472,3,1,47,40,3,2,3
4,39,2,1.85352669774511,0,0,39,37,1,0,0
4,40,2,1.5919549901063874,2,1,43,39,2,0,1
4,41,2,2.0471882981910308,3,1,58,45,3,1,2
4,42,2,1.0446559284719117,0,0,48,41,1,0,0
4,43,2,1.3188618365147704,3,1,52,41,3,1,2
4,44,2,1.2725982167939949,3,1,56,52,3,2,3
4,45,2,1.2151053344969114,2,1,54,29,2,0,1
4,46,2,0.9264226958221116,0,0,36,32,1,0,0
4,47,2,1.6737441490804486,0,0,42,40,1,0,0
4,48,2,0.8530457557117188,1,1,35,30,1,0,0
4,49,2,1.3194137763766776,3,1,59,49,3,2,3
4,50,2,0.9880105827724036,0,0,38,39,1,0,0
4,51,2,1.4266338119650754,2,1,56,31,2,0,1
4,52,2,1.2709475172432576,3,1,49,44,3,1,2
4,53,2,1.4571495668278658,0,0,50,38,1,0,0
4,54,2,1.3530227155515604,3,1,52,39,3,1,2
4,55,2,2.1135890188197664,2,1,47,33,2,0,1
4,56,2,1.1195620526159469,3,1,55,37,3,1,2
4,57,2,1.7635379720632045,0,0,41,38,1,0,0
4,58,2,1.0106397757826926,1,1,42,36,1,0,0
4,59,2,0.9178684812995924,0,0,39,33,1,0,0
4,60,2,1.265145492643569,2,0,54,52,3,2,3
4,61,2,0.8320962757879897,0,0,45,35,1,0,0
4,62,2,0.7521861699624424,2,1,46,40,2,0,1
4,63,2,0.8836758580400783,2,1,51,34,2,0,1
4,64,2,1.3804442620967166,3,1,51,40,3,1,2
4,65,2,3.848502918592203,3,1,48,44,3,2,3
4,66,2,1.380537105411349,3,1,57,51,3,2,3
4,67,2,1.2178909753238258,3,1,54,44,3,2,3
4,68,2,1.0951746393020585,3,1,62,40,3,1,2
4,69,2,1.2615867264103144,2,1,49,39,2,0,1
4,70,2,1.0373738721827976,3,1,56,46,3,1,2
4,71,2,1.1436269036712474,0,0,54,46,2,0,1
4,72,2,1.7549137837158924,0,0,35,34,1,0,0
4,73,2,1.1038561720488358,2,1,48,26,2,0,1
4,74,2,1.4856722624099348,0,0,47,43,1,0,0
4,75,2,1.3964245765819214,2,1,51,44,2,0,1
4,76,2,1.2080492424574911,2,1,57,33,2,0,1
4,77,2,1.2764061581056012,2,1,42,30,2,0,1
4,78,2,1.5301425042489427,0,0,41,42,1,0,0
4,79,2,1.2696746763376725,3,1,46,36,3,1,2
5,1,0,1.1145735733980473,3,1,55,51,3,2,3
5,2,0,1.0501155917636424,3,1,54,37,3,1,2
5,3,0,0.8129826634540223,3,1,54,50,3,1,2
5,4,0,0.8329867116399328,3,1,64,32,3,1,2
5,5,0,1.2333475668383471,0,0,42,34,2,0,1
5,6,0,1.5921213281735618,1,1,47,37,1,0,0
5,7,0,1.378170240232066,2,1,50,40,2,0,1
5,8,0,1.37670524731584,2,1,50,26,2,0,1
5,9,0,1.6487259647465182,1,0,56,39,3,1,2
5,10,0,1.4087787618354923,2,1,58,34,2,0,1
5,11,0,2.4624721857853733,3,1,52,46,3,2,3
5,12,0,1.0461595647620925,3,1,54,53,3,2,3
5,13,0,1.2108507779112188,3,1,48,44,3,2,3
5,14,0,1.781553240647554,2,1,56,46,2,0,1
5,15,0,1.318175162225998,1,1,41,34,1,0,0
5,16,0,1.1418008695072783,1,1,42,36,1,0,0
5,17,0,1.4303228957705871,1,1,40,30,1,0,0
5,18,0,1.0808210513878294,3,1,57,47,3,2,3
5,19,0,1.074394470163497,2,0,49,49,3,2,3
5,20,0,0.851128798886748,2,1,54,41,2,0,1
5,21,0,1.5165765723331788,1,0,52,38,3,1,2
5,22,0,1.068259044334809,3,1,54,44,3,1,2
5,23,0,1.1719687327095016,3,1,56,33,3,1,2
5,24,0,1.681326835755499,1,1,44,37,1,0,0
5,25,0,1.0411286862481577,2,0,48,60,3,2,3
5,26,0,1.18465737358747,2,1,47,33,2,0,1
5,27,0,1.0605862634047298,2,1,49,36,2,0,1
5,28,0,1.789004156388728,1,1,41,42,1,0,0
5,29,0,1.3721351657350171,2,1,57,35,2,0,1
5,30,0,1.5928330034366809,0,0,39,40,1,0,0
5,31,0,1.7964093337659506,2,0,47,40,3,2,3
5,32,0,1.1719605407633935,3,1,60,40,3,1,2
5,33,0,1.0217987669075228,3,1,50,53,3,2,3
5,34,0,1.04286230670823,3,1,59,50,3,2,3
5,35,0,1.3271873262410736,2,1,43,32,2,0,1
5,36,0,1.4651973729796737,2,0,56,44,3,2,3
5,37,0,1.894518803415849,1,1,34,38,1,0,0
5,38,0,1.85644400617548,3,1,44,40,3,1,2
5,39,0,1.394655506505842,3,1,53,46,3,1,2
5,40,0,1.3600042598118307,3,1,55,52,3,2,3
5,41,0,1.9577490172223408,0,0,36,39,1,0,0
5,42,0,1.5203462325753208,0,0,54,32,2,0,1
5,43,0,2.199173500967845,0,0,42,29,1,0,0
5,44,0,1.596922490884026,3,1,51,48,3,2,3
5,45,0,1.120567688168194,3,1,59,38,3,1,2
5,46,0,1.895484428988312,2,1,56,41,2,0,1
5,47,0,1.67691752110386,3,1,62,47,3,2,3
5,48,0,1.088810928874409,3,1,52,45,3,1,2
5,49,0,1.6612497427213384,1,1,37,38,1,0,0
5,50,0,1.2449992439514972,2,1,52,31,2,0,1
5,51,0,1.6204135771940855,0,0,45,33,1,0,0
5,52,0,0.9840953378616176,3,1,55,48,3,2,3
5,53,0,0.9249358382940044,1,0,50,42,3,1,2
5,54,0,0.9913656894705128,1,1,35,42,1,0,0
5,55,0,1.263618170690279,2,1,55,33,2,0,1
5,56,0,2.3716296544334905,1,1,40,38,1,0,0
5,57,0,1.062784094109702,3,1,53,30,3,1,2
5,58,0,1.3111468143397358,3,1,61,50,3,2,3
5,59,0,1.7572658289718674,2,1,48,30,2,0,1
5,60,0,1.2991391289297098,3,1,57,51,3,2,3
5,61,0,1.3777777095119743,1,1,43,43,1,0,0
5,62,0,1.3687733961114643,3,1,46,37,3,1,2
5,63,0,1.401457210567969,3,1,60,53,3,2,3
5,64,0,1.378533416481332,3,1,53,43,3,1,2
5,65,0,1.4355124932289982,0,0,38,39,1,0,0
5,66,0,1.8299577398011024,2,1,49,35,2,0,1
5,67,0,1.4888854073124094,3,1,49,51,3,2,3
5,68,0,1.105289027195795,2,1,45,35,2,0,1
5,69,0,1.1684929585107966,2,0,57,55,3,2,3
5,70,0,1.5064516690581513,3,1,58,48,3,1,2
5,71,0,1.8730852607441195,0,0,34,37,1,0,0
5,72,0,1.1987918928416548,3,1,51,39,3,1,2
5,73,0,1.4892642847908064,0,0,43,44,1,0,0
5,74,0,1.7107140748212255,2,1,46,28,2,0,1
5,75,0,1.3259899368777042,2,1,52,39,2,0,1
5,76,0,1.7755550299061724,1,1,36,36,1,0,0
5,77,0,1.1130973165572868,3,1,58,41,3,1,2
5,78,0,1.675747096894156,1,1,35,36,1,0,0
5,79,0,1.465781049094403,3,1,51,46,3,1,2
5,80,0,1.5827603238139998,2,1,45,31,2,0,1
5,1,1,1.3123684382089778,0,0,42,33,1,0,0
5,2,1,1.10620481843398,1,1,33,42,1,0,0
5,3,1,1.184792199356707,3,1,55,53,3,2,3
5,4,1,1.2805362447506925,3,1,51,35,3,1,2
5,5,1,1.7790226121587691,2,1,42,41,2,0,1
5,6,1,0.9970061852600338,3,1,57,52,3,2,3
5,7,1,1.379829109190723,1,1,43,32,1,0,0
5,8,1,1.4115131649678003,3,1,44,46,3,2,3
5,9,1,1.793385481892983,1,0,53,46,3,1,2
5,10,1,1.2712220027460717,2,0,55,47,3,2,3
5,11,1,1.3600482915189789,2,1,50,36,2,0,1
5,12,1,1.380766745616711,2,1,52,36,2,0,1
5,13,1,1.6982374005319798,3,1,59,38,3,1,2
5,14,1,1.3537012404312918,2,1,47,41,2,0,1
5,15,1,1.6280505183622154,3,1,54,37,3,1,2
5,16,1,2.57035976635143,1,1,42,34,1,0,0
5,17,1,2.078103373477461,3,1,54,54,3,2,3
5,18,1,1.4422063366746445,1,1,40,42,1,0,0
5,19,1,1.6947926874599943,2,0,46,49,3,2,3
5,20,1,1.2941533061157315,2,1,50,28,2,0,1
5,21,1,1.184481246758878,2,1,55,30,2,0,1
5,22,1,1.3880705476694857,0,0,43,38,1,0,0
5,23,1,1.4003366206925418,2,1,55,35,2,0,1
5,24,1,1.1852857640706134,2,0,48,49,3,2,3
5,25,1,1.2600516024294848,2,0,57,60,3,2,3
5,26,1,1.4008728517901543,1,1,39,44,1,0,0
5,27,1,2.517961011118132,0,0,47,29,1,0,0
5,28,1,1.5405424501495872,1,1,40,40,1,0,0
5,29,1,1.4444058740346009,3,1,61,44,3,1,2
5,30,1,1.3649655067893036,3,1,48,37,3,1,2
5,31,1,1.0496698133983955,2,0,56,49,3,2,3
5,32,1,1.4093678992467176,2,0,51,53,3,2,3
5,33,1,1.0921273014673716,2,0,56,50,3,2,3
5,34,1,1.4468067967209208,3,1,52,41,3,1,2
5,35,1,2.043114891694131,1,1,48,31,1,0,0
5,36,1,1.097290957764926,2,1,43,38,2,0,1
5,37,1,1.2463099552278436,3,1,60,39,3,1,2
5,38,1,1.4965807160915574,1,1,38,34,1,0,0
5,39,1,1.864062856797318,3,1,50,45,3,1,2
5,40,1,1.1894220138738092,2,1,56,40,2,0,1
5,41,1,1.2811448380334696,3,1,47,32,3,1,2
5,42,1,1.113607606494952,3,1,62,44,3,1,2
5,43,1,1.1403133487410742,2,1,51,38,2,0,1
5,44,1,1.0440347789044608,2,1,40,36,2,0,1
5,45,1,1.0046079693292995,2,1,50,46,2,0,1
5,46,1,1.1758667334306665,3,1,53,36,3,1,2
5,47,1,1.0367640859649327,2,0,58,44,3,2,3
5,48,1,1.3525902078263243,3,1,58,41,3,1,2
5,49,1,1.0436330322445428,2,0,49,48,3,2,3
5,50,1,1.6323745002491703,3,1,59,51,3,2,3
5,51,1,1.8079091185563807,1,1,39,35,1,0,0
5,52,1,1.2590880248435496,3,1,52,46,3,1,2
5,53,1,1.3766072853022706,2,1,53,37,2,0,1
5,54,1,1.3669226990959942,3,1,56,48,3,2,3
5,55,1,1.2448241411166237,2,1,57,30,2,0,1
5,56,1,1.094980146479429,3,1,51,37,3,1,2
5,57,1,1.1637982910915523,2,1,45,32,2,0,1
5,58,1,1.0835892462964694,2,0,55,46,3,2,3
5,59,1,1.3041683007886604,3,1,49,40,3,1,2
5,60,1,1.2944178376883428,3,1,54,50,3,1,2
5,61,1,1.6631352555050398,1,1,34,37,1,0,0
5,62,1,1.3012113498043618,0,0,45,33,1,0,0
5,63,1,1.855256856743836,0,0,38,37,1,0,0
5,64,1,1.258543260469196,2,1,52,39,2,0,1
5,65,1,1.2285395775070356,2,0,64,45,3,2,3
5,66,1,1.2643434991969116,0,0,30,31,1,0,0
5,67,1,1.6007925024587166,2,1,54,43,2,0,1
5,68,1,1.0440730079835705,3,1,54,48,3,2,3
5,69,1,1.3742336691011587,3,1,52,42,3,1,2
5,70,1,1.6360980807976375,3,1,50,34,3,1,2
5,71,1,1.3206409378135504,3,1,60,51,3,2,3
5,72,1,1.0663895741117813,2,1,58,26,2,0,1
5,73,1,1.100397411754784,3,1,57,41,3,1,2
5,74,1,1.886906096752682,0,0,35,39,1,0,0
5,75,1,1.0603077372588814,2,1,47,34,2,0,1
5,76,1,1.8901774136456884,0,0,43,35,1,0,0
5,77,1,1.223896109747329,0,0,36,39,1,0,0
5,78,1,1.499027035809377,3,1,53,56,3,2,3
5,79,1,1.3328493258886738,0,0,40,33,1,0,0
5,80,1,1.7482758514761372,2,1,44,36,2,0,1
5,1,2,1.3747876494135198,1,1,41,40,1,0,0
5,2,2,1.5149958681877251,0,0,57,31,2,0,1
5,3,2,1.470954262662417,1,1,39,30,1,0,0
5,4,2,1.2396628741371387,1,1,34,43,1,0,0
5,5,2,1.0700691229531003,2,1,50,36,2,0,1
5,6,2,1.5330246335215634,3,1,52,46,3,1,2
5,7,2,1.1636737052549506,3,1,56,42,3,1,2
5,8,2,1.1047971691359637,2,1,40,39,2,0,1
5,9,2,2.410912422299589,3,1,55,39,3,1,2
5,10,2,2.2922288815916545,3,1,52,39,3,1,2
5,11,2,1.933699854626866,0,0,43,34,1,0,0
5,12,2,1.2635154300414797,2,0,57,51,3,2,3
5,13,2,1.0470739906759263,3,1,53,48,3,2,3
5,14,2,1.3974875303229055,1,1,33,37,1,0,0
5,15,2,1.48416616405666,3,1,53,60,3,2,3
5,16,2,1.0604340297513772,2,1,53,33,2,0,1
5,17,2,1.2678701317236118,1,1,41,37,1,0,0
5,18,2,1.140413017411447,2,1,50,36,2,0,1
5,19,2,1.083470463087906,2,0,59,45,3,2,3
5,20,2,1.11749400196004,3,1,60,32,3,1,2
5,21,2,1.1797432302955713,3,1,46,51,3,2,3
5,22,2,1.1095911638949474,2,0,57,46,3,2,3
5,23,2,0.9973478576521302,3,1,50,42,3,1,2
5,24,2,1.570931837210992,2,0,54,56,3,2,3
5,25,2,1.2448821673970087,2,1,54,28,2,0,1
5,26,2,1.5856292113858217,3,1,60,40,3,1,2
5,27,2,1.3157155305980268,2,0,49,43,3,2,3
5,28,2,1.4045394300528642,2,0,57,50,3,2,3
5,29,2,1.1255869614269614,3,1,49,46,3,1,2
5,30,2,1.1837299770932077,2,1,44,42,2,0,1
5,31,2,1.0765574851002384,2,1,56,30,2,0,1
5,32,2,1.4586199234263404,3,1,55,35,3,1,2
5,33,2,1.517665759749434,2,1,46,35,2,0,1
5,34,2,1.4059982790085996,0,0,40,40,1,0,0
5,35,2,1.1037066163953568,0,0,38,39,1,0,0
5,36,2,0.9510391312169304,0,0,49,33,2,0,1
5,37,2,1.5440813705945402,1,1,47,39,1,0,0
5,38,2,1.3436992163378818,3,1,52,51,3,2,3
5,39,2,1.09822688753502,3,1,55,38,3,1,2
5,40,2,1.7452468796363974,0,0,44,34,1,0,0
5,41,2,1.73827655803143,3,1,51,53,3,2,3
5,42,2,1.3234091327221904,0,0,40,33,1,0,0
5,43,2,1.1220685208454595,2,1,48,44,2,0,1
5,44,2,1.1947604316746947,1,1,42,26,1,0,0
5,45,2,1.0180973728774916,1,1,45,46,1,0,0
5,46,2,1.2794904063784998,3,1,54,53,3,2,3
5,47,2,1.0057545003646735,3,1,64,42,3,2,3
5,48,2,0.9605684117905184,3,1,44,38,3,1,2
5,49,2,1.1535518739592592,2,1,47,35,2,0,1
5,50,2,1.2427229071026886,3,1,50,54,3,2,3
5,51,2,0.9159977431190782,3,1,54,43,3,1,2
5,52,2,0.8766965433742371,3,1,51,34,3,1,2
5,53,2,0.9436312231900956,3,1,58,52,3,2,3
5,54,2,0.9678373980741526,3,1,51,45,3,2,3
5,55,2,0.9719449760677892,2,1,50,37,2,0,1
5,56,2,1.1974559230666273,0,0,41,36,1,0,0
5,57,2,1.0504866186274742,3,1,61,36,3,1,2
5,58,2,0.7748768050860235,2,1,47,38,2,0,1
5,59,2,1.6222376503865237,1,1,43,32,1,0,0
5,60,2,1.0387588246885568,1,1,35,38,1,0,0
5,61,2,1.0443627980548629,3,1,62,49,3,2,3
5,62,2,0.9420682682603,3,1,48,48,3,1,2
5,63,2,1.1237564029443092,3,1,54,52,3,2,3
5,64,2,1.923357523465711,2,1,48,42,2,0,1
5,65,2,0.9651992503004294,2,1,55,29,2,0,1
5,66,2,0.9212999798273812,2,1,52,38,2,0,1
5,67,2,1.107317216363299,0,0,36,34,1,0,0
5,68,2,1.0576443309864771,3,1,58,37,3,1,2
5,69,2,1.0446457615043985,3,1,48,40,3,1,2
5,70,2,0.9221283903134464,2,1,47,31,2,0,1
5,71,2,0.8594060771265504,3,1,56,44,3,1,2
5,72,2,0.8117617222469562,3,1,59,37,3,1,2
5,73,2,1.732692723197033,1,1,45,36,1,0,0
5,74,2,0.8332352006527799,3,1,53,37,3,1,2
5,75,2,0.8914939275500728,2,1,55,32,2,0,1
5,76,2,1.519858811820086,1,1,30,41,1,0,0
5,77,2,1.0808964855532397,1,1,50,41,1,0,0
5,78,2,1.0922177541988276,3,1,56,49,3,2,3
5,79,2,0.8097058852645205,2,1,58,35,2,0,1
5,80,2,0.9427891594614266,3,1,47,44,3,2,3
6,1,0,2.1333330147554648,1,0,51,44,3,1,2
6,2,0,1.0745868073961446,0,0,34,40,1,0,0
6,3,0,1.184881524886464,0,0,40,30,1,0,0
6,4,0,1.5641479789478585,0,0,47,43,2,0,1
6,5,0,1.2832886243479606,1,1,45,35,1,0,0
6,6,0,1.135470444453631,2,1,53,37,2,0,1
6,7,0,1.2710374862571143,2,0,55,44,3,2,3
6,8,0,1.0067440651509971,2,1,56,35,2,0,1
6,9,0,1.2438028362756768,3,1,56,44,3,2,3
6,10,0,1.181809183028804,1,1,42,33,1,0,0
6,11,0,1.1024109401447504,1,1,40,37,1,0,0
6,12,0,1.1448912460614338,2,1,57,32,2,0,1
6,13,0,1.1632949185355983,2,1,53,41,2,0,1
6,14,0,0.9498383274391244,3,1,47,42,3,2,3
6,15,0,1.5402894575427126,3,1,59,39,3,1,2
6,16,0,1.1730502268673035,3,1,50,45,3,1,2
6,17,0,1.1867772905434322,2,1,48,39,2,0,1
6,18,0,1.2040006321494727,3,1,59,37,3,1,2
6,19,0,1.3769290029958938,1,1,42,36,1,0,0
6,20,0,1.2157278234841442,2,1,50,33,2,0,1
6,21,0,1.0855470226000534,3,1,52,45,3,2,3
6,22,0,1.3737245651157082,1,1,38,39,1,0,0
6,23,0,1.1221918928540615,0,0,54,44,2,0,1
6,24,0,0.9212970532347526,3,1,51,51,3,2,3
6,25,0,1.0017786883036024,0,0,46,26,1,0,0
6,26,0,1.1305432969460298,2,1,50,37,2,0,1
6,27,0,1.015828994701451,3,1,60,50,3,1,2
6,28,0,1.0116596073232813,3,1,55,38,3,1,2
6,29,0,1.2343035279878904,3,1,51,41,3,1,2
6,30,0,1.119367700372095,2,0,52,52,3,2,3
6,31,0,1.0852070545420247,3,1,55,49,3,2,3
6,32,0,1.2015300610611348,2,1,50,34,2,0,1
6,33,0,1.5492460457380732,3,1,50,47,3,2,3
6,34,0,1.7211650937454124,1,1,35,38,1,0,0
6,35,0,0.9477155750766996,3,1,54,55,3,2,3
6,36,0,1.085184867871476,3,1,64,35,3,1,2
6,37,0,1.1163223238522733,2,0,54,48,3,2,3
6,38,0,0.913430683892102,3,1,44,44,3,1,2
6,39,0,1.149864814910302,1,1,37,34,1,0,0
6,40,0,0.9449473612709198,3,1,57,43,3,1,2
6,41,0,0.9684133492758064,2,1,49,38,2,0,1
6,42,0,1.229373991146531,3,1,53,53,3,2,3
6,43,0,1.2630635968962451,3,1,57,46,3,2,3
6,44,0,1.2620880660630291,1,1,40,31,1,0,0
6,45,0,1.0868396521539123,3,1,58,36,3,1,2
6,46,0,1.0067792224903087,2,1,56,30,2,0,1
6,47,0,0.9743791742940856,1,1,37,42,1,0,0
6,48,0,1.241683838580684,3,1,46,43,3,2,3
6,49,0,1.1209900579823395,2,1,51,28,2,0,1
6,50,0,1.6767794648369545,1,1,41,39,1,0,0
6,51,0,1.1545212850382995,2,1,48,42,2,0,1
6,52,0,1.8035882331457744,1,1,32,32,1,0,0
6,53,0,1.0426434632777273,2,1,51,36,2,0,1
6,54,0,0.9851639441345696,1,1,43,36,1,0,0
6,55,0,0.991544830557018,3,1,60,34,3,1,2
6,56,0,1.0355389500653018,3,1,49,40,3,1,2
6,57,0,1.2479473063162914,2,0,56,49,3,2,3
6,58,0,0.9835255438549666,3,1,48,52,3,2,3
6,59,0,1.149467161509051,2,0,53,47,3,2,3
6,60,0,0.9961101646695172,2,1,52,34,2,0,1
6,61,0,1.2297678898803497,2,0,61,46,3,2,3
6,62,0,1.3621192298016922,2,0,48,60,3,2,3
6,63,0,0.98936609951852,2,1,50,40,2,0,1
6,64,0,1.9100641126509568,2,0,56,54,3,2,3
6,65,0,1.1655808282591806,3,1,49,42,3,1,2
6,66,0,1.499300095880585,3,1,54,39,3,1,2
6,67,0,1.4977122129428149,1,1,48,36,1,0,0
6,68,0,1.1223233062098643,3,1,57,30,3,1,2
6,69,0,1.0024654510874598,3,1,53,46,3,1,2
6,70,0,1.0059415903474471,3,1,52,38,3,1,2
6,71,0,1.2495638612589346,2,1,45,33,2,0,1
6,72,0,1.4744165503004751,1,1,33,35,1,0,0
6,73,0,1.6800989320702229,0,0,41,46,1,0,0
6,74,0,1.175978184700284,2,0,58,55,3,2,3
6,75,0,1.1067666955549385,3,1,54,43,3,1,2
6,76,0,1.4018767192536643,0,0,36,29,1,0,0
6,77,0,1.1816962016762318,3,1,62,47,3,1,2
6,78,0,1.2190612853864875,2,1,58,38,2,0,1
6,79,0,0.9494731007100654,2,1,40,31,2,0,1
6,80,0,1.5384404545604866,1,1,39,41,1,0,0
6,1,1,1.4571641953560857,0,0,48,37,1,0,0
6,2,1,1.3076082871650672,0,0,38,30,1,0,0
6,3,1,1.491397545198538,3,1,55,42,3,2,3
6,4,1,1.2289469830735698,3,1,46,37,3,1,2
6,5,1,1.0440408821830258,3,1,53,42,3,1,2
6,6,1,0.8851003537238284,3,1,60,37,3,1,2
6,7,1,0.8907811653599538,3,1,48,50,3,2,3
6,8,1,0.9176635592813228,2,1,50,35,2,0,1
6,9,1,1.3404722074404845,3,1,57,42,3,1,2
6,10,1,1.176591902138398,3,1,54,43,3,1,2
6,11,1,2.378634645953639,2,1,51,46,2,0,1
6,12,1,1.0983453181175946,2,1,50,33,2,0,1
6,13,1,1.2022229678459553,3,1,58,55,3,2,3
6,14,1,1.354430012489388,2,1,50,44,2,0,1
6,15,1,1.416437660405336,3,1,54,39,3,1,2
6,16,1,1.119749311103874,3,1,51,38,3,1,2
6,17,1,2.2096667664496863,1,1,41,40,1,0,0
6,18,1,1.287376774378913,2,1,45,26,2,0,1
6,19,1,1.0419515804929915,2,1,54,33,2,0,1
6,20,1,0.8960752462635355,3,1,57,39,3,1,2
6,21,1,1.466770682328843,2,1,44,36,2,0,1
6,22,1,0.9963402233753412,3,1,54,51,3,2,3
6,23,1,1.369026110980485,3,1,51,47,3,1,2
6,24,1,1.1144876568724842,3,1,64,45,3,1,2
6,25,1,1.4461377614742332,2,1,46,38,2,0,1
6,26,1,1.5130322795575917,1,1,38,34,1,0,0
6,27,1,1.2554593715983628,3,1,50,49,3,2,3
6,28,1,1.124830058637713,2,1,57,32,2,0,1
6,29,1,1.2530085978467014,2,1,47,37,2,0,1
6,30,1,1.3741054931806502,1,1,50,37,1,0,0
6,31,1,1.0376657984282929,3,1,55,53,3,2,3
6,32,1,1.119817236448739,3,1,51,35,3,1,2
6,33,1,0.8931206644259646,3,1,61,42,3,1,2
6,34,1,0.9685474932988428,3,1,50,49,3,2,3
6,35,1,0.8964630009963912,3,1,60,56,3,2,3
6,36,1,1.4031099567974934,1,1,30,29,1,0,0
6,37,1,1.752923435165599,1,1,44,41,1,0,0
6,38,1,0.9300792200667728,2,1,51,30,2,0,1
6,39,1,0.906875034773293,3,1,58,49,3,2,3
6,40,1,1.268069933750667,2,1,48,38,2,0,1
6,41,1,1.0655595631889128,3,1,53,52,3,2,3
6,42,1,1.1016784386864629,3,1,56,58,3,2,3
6,43,1,1.0497530964912585,3,1,52,37,3,1,2
6,44,1,1.4325277751513568,1,1,43,36,1,0,0
6,45,1,1.1661252550187555,3,1,52,43,3,2,3
6,46,1,1.7179702132002603,1,1,33,34,1,0,0
6,47,1,1.0802338270265182,1,1,41,42,1,0,0
6,48,1,1.0861091986960218,3,1,55,35,3,1,2
6,49,1,2.1225332262456504,1,1,44,41,1,0,0
6,50,1,1.5828967394810434,1,1,34,34,1,0,0
6,51,1,1.498090410340751,0,0,40,35,1,0,0
6,52,1,1.365751358421562,2,1,44,40,2,0,1
6,53,1,0.870986217981681,2,1,53,39,2,0,1
6,54,1,1.268243331113581,3,1,54,40,3,1,2
6,55,1,0.9208854051644266,3,1,49,54,3,2,3
6,56,1,1.365974249126225,2,1,47,28,2,0,1
6,57,1,1.2619088660325133,2,1,52,31,2,0,1
6,58,1,0.8807910196550209,3,1,47,47,3,2,3
6,59,1,1.665452998903902,1,1,40,39,1,0,0
6,60,1,1.1251891413655812,3,1,59,52,3,2,3
6,61,1,0.99380275094245,3,1,56,36,3,1,2
6,62,1,1.1059410100804143,3,1,52,48,3,2,3
6,63,1,0.9004862976830736,3,1,59,55,3,2,3
6,64,1,1.3865102312979616,2,1,46,42,2,0,1
6,65,1,1.1078067383989492,1,1,46,33,1,0,0
6,66,1,1.4443966198437008,2,1,48,36,2,0,1
6,67,1,0.7943537995697625,3,1,53,39,3,1,2
6,68,1,2.133740566825054,1,1,45,39,1,0,0
6,69,1,1.2639056663733754,2,0,62,56,3,2,3
6,70,1,2.1473744464851734,2,0,49,60,3,2,3
6,71,1,1.1883317228084709,3,1,48,34,3,1,2
6,72,1,1.039102129340108,3,1,56,36,3,1,2
6,73,1,1.465371215423147,1,1,46,31,1,0,0
6,74,1,1.4367043305310292,2,1,40,43,2,0,1
6,75,1,1.3291116081682048,1,1,32,32,1,0,0
6,76,1,0.9414917020146732,3,1,44,41,3,1,2
6,77,1,1.3126200853537284,3,1,57,53,3,2,3
6,78,1,1.5531116463978378,1,1,43,36,1,0,0
6,79,1,1.4974176422258552,2,1,45,35,2,0,1
6,80,1,1.4292861319313488,1,1,40,38,1,0,0
6,1,2,1.48221021563063,3,1,49,50,3,1,2
6,2,2,1.1352994364242477,1,0,57,40,3,1,2
6,3,2,1.4803598473149575,3,1,52,53,3,2,3
6,4,2,1.2766507138815086,0,0,43,43,1,0,0
6,5,2,1.3756087254373597,1,1,36,33,1,0,0
6,6,2,1.51879057387373,2,0,55,44,3,2,3
6,7,2,0.931272180270298,1,1,33,38,1,0,0
6,8,2,0.8935244618282923,0,0,49,35,2,0,1
6,9,2,1.075506700886535,3,1,46,56,3,2,3
6,10,2,0.8920420509084579,2,0,60,45,3,2,3
6,11,2,1.048783709658892,3,1,51,41,3,1,2
6,12,2,1.083997369002191,2,0,58,60,3,2,3
6,13,2,0.9959719246458008,2,0,53,49,3,2,3
6,14,2,1.602458897486258,3,1,60,30,3,1,2
6,15,2,1.3506156118385206,1,1,43,31,1,0,0
6,16,2,1.132373526591664,2,1,50,36,2,0,1
6,17,2,1.4878995606015906,3,1,55,52,3,2,3
6,18,2,0.9808785034033464,3,1,48,43,3,2,3
6,19,2,2.018478765820418,0,0,37,33,1,0,0
6,20,2,1.161893062296258,3,1,58,45,3,1,2
6,21,2,1.0913711942607731,2,0,44,57,3,2,3
6,22,2,1.7054746804010392,1,1,34,39,1,0,0
6,23,2,1.0333643150274838,3,1,57,42,3,1,2
6,24,2,1.0222143184580543,1,0,50,42,3,1,2
6,25,2,1.208965667663506,2,1,48,42,2,0,1
6,26,2,1.0878967616677069,3,1,57,55,3,2,3
6,27,2,1.2283588656400752,3,1,48,38,3,1,2
6,28,2,0.8456043256499015,3,1,54,38,3,1,2
6,29,2,1.1075804343604432,2,1,47,35,2,0,1
6,30,2,1.8472468219301843,0,0,40,30,1,0,0
6,31,2,0.9178226206418004,1,1,46,38,1,0,0
6,32,2,1.316539958022986,2,1,47,37,2,0,1
6,33,2,1.083478883580483,2,1,51,33,2,0,1
6,34,2,1.1371494634067858,2,1,48,29,2,0,1
6,35,2,1.4581786381957045,0,0,39,41,1,0,0
6,36,2,1.0312968586745228,3,1,56,44,3,1,2
6,37,2,1.3636228033917632,2,0,53,52,3,2,3
6,38,2,0.8780050565128477,3,1,56,50,3,2,3
6,39,2,1.0467008933037505,3,1,54,54,3,2,3
6,40,2,1.880946667681428,0,0,35,32,1,0,0
6,41,2,1.3492816809439323,2,1,48,40,2,0,1
6,42,2,1.5291640369773631,3,1,59,44,3,1,2
6,43,2,2.581678179273013,1,1,39,36,1,0,0
6,44,2,1.1038295217203995,3,1,54,40,3,1,2
6,45,2,1.6909454832548363,0,0,41,30,1,0,0
6,46,2,1.3432305225780965,2,1,56,39,2,0,1
6,47,2,1.0491188990495175,2,1,51,32,2,0,1
6,48,2,2.7444184310472792,2,1,40,34,2,0,1
6,49,2,2.4915938118986105,1,1,40,46,1,0,0
6,50,2,1.1042640391278835,2,1,55,26,2,0,1
6,51,2,1.0371524330073498,2,1,45,37,2,0,1
6,52,2,0.8868589033572789,2,1,49,41,2,0,1
6,53,2,1.3000228352038905,1,1,34,36,1,0,0
6,54,2,1.086903822831573,3,1,51,32,3,1,2
6,55,2,1.3410227782012498,1,1,45,42,1,0,0
6,56,2,0.9886701207331045,3,1,55,53,3,2,3
6,57,2,1.2318633355712336,2,1,58,34,2,0,1
6,58,2,1.0466462799608962,3,1,49,43,3,1,2
6,59,2,1.1210159993202071,2,1,46,35,2,0,1
6,60,2,1.1742575230732657,2,1,50,44,2,0,1
6,61,2,1.4135649985817054,1,1,39,39,1,0,0
6,62,2,0.9757161771888148,3,1,51,35,3,1,2
6,63,2,1.7354567228512678,3,1,64,50,3,2,3
6,64,2,1.2366239123839478,3,1,52,42,3,1,2
6,65,2,1.2196272161497743,3,1,59,47,3,2,3
6,66,2,1.4009718444326609,2,0,62,51,3,2,3
6,67,2,1.1630501824938622,3,1,52,48,3,1,2
6,68,2,1.4020586499514138,1,1,38,31,1,0,0
6,69,2,1.1754470699429476,2,1,46,40,2,0,1
6,70,2,1.2818051894280416,3,1,53,47,3,1,2
6,71,2,1.2029906266436683,2,1,52,34,2,0,1
6,72,2,1.1157096304143579,1,1,37,37,1,0,0
6,73,2,1.0096778256518064,1,1,41,36,1,0,0
6,74,2,0.997055316830938,3,1,56,53,3,2,3
6,75,2,0.9004436310090114,3,1,61,36,3,1,2
6,76,2,0.8689218336294289,3,1,50,46,3,1,2
6,77,2,1.5318291680987386,3,1,54,44,3,2,3
6,78,2,0.9691028427268976,3,1,47,54,3,2,3
6,79,2,1.3272704558542046,1,1,37,38,1,0,0
6,80,2,1.463699023137906,2,1,42,28,2,0,1
7,1,0,2.0946581983549777,1,0,56,40,3,1,2
7,2,0,1.739800120628047,1,0,54,40,3,1,2
7,3,0,1.127667752000434,3,1,56,50,3,2,3
7,4,0,1.7676237606526684,0,0,50,46,2,0,1
7,5,0,1.7325556112691631,2,1,54,30,2,0,1
7,6,0,1.3920035963132025,3,1,46,35,3,1,2
7,7,0,1.368245606070559,0,0,42,30,1,0,0
7,8,0,1.072865960534159,0,0,47,42,2,0,1
7,9,0,2.0883496315451566,0,0,44,34,2,0,1
7,10,0,1.2266042522921907,0,0,50,38,1,0,0
7,11,0,1.0336512648024154,0,0,50,38,2,0,1
7,12,0,1.6407465421838197,3,1,49,39,3,1,2
7,13,0,1.2105631800474157,3,1,59,35,3,1,2
7,14,0,1.180575471546831,0,0,41,28,1,0,0
7,15,0,1.3887602242848516,2,1,42,32,2,0,1
7,16,0,0.9686203244258422,2,1,55,37,2,0,1
7,17,0,1.1625621615015689,1,1,38,41,1,0,0
7,18,0,1.910920251346056,2,1,46,32,2,0,1
7,19,0,1.3545935425426023,2,1,58,35,2,0,1
7,20,0,1.4419908474239946,3,1,51,45,3,1,2
7,21,0,1.5392076983492868,3,1,55,48,3,2,3
7,22,0,1.0343035573667976,3,1,60,39,3,1,2
7,23,0,1.0385617204958637,3,1,48,53,3,2,3
7,24,0,1.582930756294104,2,1,55,42,2,0,1
7,25,0,1.0893265343808023,1,1,40,37,1,0,0
7,26,0,1.3859264551226715,1,1,37,33,1,0,0
7,27,0,1.124568082311043,2,1,49,33,2,0,1
7,28,0,1.0497073558188958,1,1,42,39,1,0,0
7,29,0,1.2231267239587849,3,1,50,56,3,2,3
7,30,0,1.5218791077621745,3,1,58,48,3,2,3
7,31,0,1.267603792512887,2,1,52,36,2,0,1
7,32,0,1.9539387923611,3,1,47,46,3,1,2
7,33,0,1.3834391417182132,1,1,34,36,1,0,0
7,34,0,1.3633805480282035,3,1,56,47,3,2,3
7,35,0,1.6149722818327064,3,1,51,49,3,2,3
7,36,0,2.8642620475295644,2,0,54,57,3,2,3
7,37,0,1.4096533838145433,3,1,53,43,3,1,2
7,38,0,1.4399356650430946,2,0,59,50,3,2,3
7,39,0,1.5563089593459836,2,0,55,51,3,2,3
7,40,0,0.9173377042510538,3,1,52,36,3,1,2
7,41,0,1.4015121855146615,3,1,62,43,3,1,2
7,42,0,1.3906297200330755,2,1,60,31,2,0,1
7,43,0,1.12307269051405,1,1,30,40,1,0,0
7,44,0,1.3803517601147632,2,1,47,36,2,0,1
7,45,0,1.8607640390529243,3,1,48,51,3,2,3
7,46,0,1.127747283223698,2,1,40,44,2,0,1
7,47,0,1.2241241069377793,3,1,49,43,3,2,3
7,48,0,1.8082867438517949,1,0,58,41,3,1,2
7,49,0,1.3829834585296794,3,1,61,53,3,2,3
7,50,0,1.3759655960900543,2,1,56,26,2,0,1
7,51,0,1.5577500787633198,3,1,53,39,3,1,2
7,52,0,1.5837349432547398,3,1,60,37,3,1,2
7,53,0,1.5330674100503074,1,1,42,39,1,0,0
7,54,0,1.2702177414703328,1,1,38,37,1,0,0
7,55,0,1.846067488216249,1,1,44,29,1,0,0
7,56,0,2.2010405960813846,3,1,50,44,3,1,2
7,57,0,1.2118172474893072,2,1,44,34,2,0,1
7,58,0,1.7317811205164162,3,1,55,36,3,1,2
7,59,0,1.0998410399545264,1,1,37,43,1,0,0
7,60,0,1.4648640954756047,1,1,48,39,1,0,0
7,61,0,1.4851616241708143,2,1,48,33,2,0,1
7,62,0,1.8650880799762035,1,1,43,31,1,0,0
7,63,0,1.1835198334827055,3,1,52,52,3,2,3
7,64,0,1.2732071597215509,3,1,53,34,3,1,2
7,65,0,0.9703031095341428,3,1,54,46,3,2,3
7,66,0,1.4600167868907192,1,1,40,40,1,0,0
7,67,0,1.4508369039895117,1,1,46,41,1,0,0
7,68,0,1.2310917930265075,3,1,64,52,3,2,3
7,69,0,1.2211203525860128,2,1,51,35,2,0,1
7,70,0,1.6255775827080468,1,1,32,38,1,0,0
7,71,0,1.1393349483064412,1,1,41,35,1,0,0
7,72,0,1.320630638226021,3,1,54,45,3,2,3
7,73,0,1.0551083109444337,3,1,51,47,3,1,2
7,74,0,1.7709302797895816,2,1,45,36,2,0,1
7,75,0,1.108468641657737,3,1,57,54,3,2,3
7,76,0,1.1241943196955615,1,1,38,34,1,0,0
7,77,0,1.7790458779104483,3,1,44,45,3,1,2
7,78,0,1.0569754173427557,3,1,57,53,3,2,3
7,79,0,1.1217984842646729,3,1,52,33,3,1,2
7,80,0,1.1107579803438057,3,1,57,49,3,2,3
7,1,1,2.3962347939202573,2,0,52,52,3,2,3
7,2,1,1.5642781244421258,1,1,40,41,1,0,0
7,3,1,1.1954167487294851,1,1,35,33,1,0,0
7,4,1,1.6342447793554131,2,1,45,44,2,0,1
7,5,1,1.1419898575504703,2,0,62,50,3,2,3
7,6,1,1.1358065609504138,3,1,49,53,3,2,3
7,7,1,1.4034878366724115,1,1,37,29,1,0,0
7,8,1,1.4897515656216456,2,1,50,36,2,0,1
7,9,1,1.1381924976458322,2,0,55,47,3,2,3
7,10,1,1.7205016815905765,2,1,55,35,2,0,1
7,11,1,1.052957213225909,3,1,49,45,3,1,2
7,12,1,1.2156757064881276,1,1,34,38,1,0,0
7,13,1,1.1316763987169909,3,1,54,40,3,2,3
7,14,1,1.2219330729396916,3,1,60,56,3,2,3
7,15,1,1.662650738121556,2,1,48,32,2,0,1
7,16,1,1.1336179163024551,3,1,51,46,3,1,2
7,17,1,0.887180693232267,3,1,61,40,3,1,2
7,18,1,1.451521282111571,1,1,43,31,1,0,0
7,19,1,0.9114967673799584,3,1,52,57,3,2,3
7,20,1,1.1570837231672613,3,1,59,43,3,2,3
7,21,1,1.6848191279077582,2,1,46,41,2,0,1
7,22,1,0.9986319264271516,3,1,50,40,3,1,2
7,23,1,1.1604704561987091,3,1,54,39,3,1,2
7,24,1,1.1499405905176443,3,1,57,51,3,2,3
7,25,1,1.1153161775723677,3,1,56,56,3,2,3
7,26,1,1.680618309179863,2,1,42,32,2,0,1
7,27,1,1.819590076278245,1,1,42,40,1,0,0
7,28,1,1.7764653798537893,2,1,51,38,2,0,1
7,29,1,1.4061263618013982,3,1,53,35,3,1,2
7,30,1,0.9529219532460048,3,1,48,49,3,2,3
7,31,1,1.9701450710949755,2,1,51,30,2,0,1
7,32,1,1.3659504646775529,3,1,55,42,3,1,2
7,33,1,1.1416365750783368,2,1,50,34,2,0,1
7,34,1,1.2661319528806416,1,1,38,37,1,0,0
7,35,1,1.6024350207719635,1,1,38,39,1,0,0
7,36,1,1.5850596671907624,2,1,48,31,2,0,1
7,37,1,1.3799325998484164,1,1,44,37,1,0,0
7,38,1,1.4904530105300182,3,1,51,52,3,2,3
7,39,1,1.4305786289021398,2,1,46,35,2,0,1
7,40,1,1.7798906838218045,3,1,56,46,3,1,2
7,41,1,1.6117650913909074,1,1,39,39,1,0,0
7,42,1,1.546623558240526,1,1,38,26,1,0,0
7,43,1,1.228293181443405,1,0,64,48,3,1,2
7,44,1,2.019320967195199,1,1,36,42,1,0,0
7,45,1,1.5458282460087958,1,1,43,33,1,0,0
7,46,1,1.801181499467475,2,1,52,36,2,0,1
7,47,1,0.9857188547366604,3,1,46,49,3,2,3
7,48,1,1.1161367486477047,3,1,51,32,3,1,2
7,49,1,1.5932309030345095,2,1,53,35,2,0,1
7,50,1,1.7055054379900412,2,1,45,46,2,0,1
7,51,1,1.3637655747224926,2,1,53,28,2,0,1
7,52,1,1.2341095421425052,3,1,60,44,3,1,2
7,53,1,1.5679577235227953,1,1,37,33,1,0,0
7,54,1,1.193497076630365,3,1,54,55,3,2,3
7,55,1,1.0445808346134982,3,1,47,50,3,1,2
7,56,1,0.9580983094665498,1,1,47,37,1,0,0
7,57,1,1.220232197038058,1,1,36,39,1,0,0
7,58,1,1.3252905534998265,2,1,44,34,2,0,1
7,59,1,1.6919192522561843,1,1,34,30,1,0,0
7,60,1,0.9911133244836492,3,1,44,48,3,2,3
7,61,1,1.27963280468407,2,1,50,42,2,0,1
7,62,1,1.1748772130074483,1,1,42,36,1,0,0
7,63,1,1.1651324194865538,3,1,57,40,3,1,2
7,64,1,1.1421909042906009,3,1,55,60,3,2,3
7,65,1,0.991960178409272,3,1,53,47,3,2,3
7,66,1,1.3235476933045902,3,1,56,49,3,2,3
7,67,1,1.3833715572452547,1,0,53,41,3,1,2
7,68,1,1.4015244736006025,2,1,54,40,2,0,1
7,69,1,1.2364080968930011,3,1,58,44,3,2,3
7,70,1,1.0711268550317072,3,1,52,33,3,1,2
7,71,1,1.7568259464301264,2,1,58,34,2,0,1
7,72,1,1.5110079063592818,3,1,59,47,3,2,3
7,73,1,1.1370548256847997,3,1,54,41,3,1,2
7,74,1,1.793340676602611,1,1,43,38,1,0,0
7,75,1,1.2051533501930862,3,1,48,39,3,1,2
7,76,1,1.1471194507771545,3,1,57,41,3,1,2
7,77,1,1.215712912081699,3,1,50,30,3,1,2
7,78,1,1.9468379853410624,1,1,37,36,1,0,0
7,79,1,1.4344442559511208,2,1,54,43,2,0,1
7,80,1,1.313931924686358,3,1,58,45,3,1,2
7,1,2,1.205199089179814,1,0,47,30,3,1,2
7,2,2,0.9533103932972152,3,1,56,48,3,2,3
7,3,2,1.4599218955602282,2,1,51,36,2,0,1
7,4,2,1.1978078054603432,3,1,52,41,3,1,2
7,5,2,1.514238990301692,3,1,56,50,3,2,3
7,6,2,1.5622482009046053,1,1,39,35,1,0,0
7,7,2,2.400758857576648,0,0,40,34,1,0,0
7,8,2,1.3298514814139253,3,1,58,54,3,2,3
7,9,2,1.404349709369626,3,1,54,50,3,2,3
7,10,2,1.36658944514852,3,1,48,36,3,1,2
7,11,2,1.6672478476223205,0,0,45,37,2,0,1
7,12,2,1.2084284664433649,3,1,54,43,3,1,2
7,13,2,1.0755771901722255,3,1,59,48,3,2,3
7,14,2,1.1546824263643884,3,1,51,42,3,1,2
7,15,2,1.3321752950078007,3,1,44,55,3,2,3
7,16,2,2.210383296122245,1,1,37,33,1,0,0
7,17,2,1.3766786464127565,3,1,59,45,3,2,3
7,18,2,1.8373135922956865,0,0,50,38,2,0,1
7,19,2,0.9676208934324676,2,1,57,39,2,0,1
7,20,2,1.7688419878436434,0,0,42,34,1,0,0
7,21,2,2.2466297364171623,2,1,44,46,2,0,1
7,22,2,1.0621985365573892,3,1,54,46,3,2,3
7,23,2,1.0857896136319596,3,1,56,39,3,1,2
7,24,2,1.6883062136412263,2,1,53,33,2,0,1
7,25,2,2.0879905463659725,0,0,45,37,1,0,0
7,26,2,1.2393944431225918,1,1,40,30,1,0,0
7,27,2,0.9795642303374734,3,1,60,47,3,2,3
7,28,2,1.3358712782032849,2,1,51,39,2,0,1
7,29,2,1.4515284501617316,2,1,47,36,2,0,1
7,30,2,1.0477590115192472,3,1,51,41,3,1,2
7,31,2,1.5272769908663122,2,1,58,40,2,0,1
7,32,2,1.2478899479019674,3,1,58,40,3,1,2
7,33,2,1.9643215423459424,1,1,34,29,1,0,0
7,34,2,1.370524022013342,2,1,42,43,2,0,1
7,35,2,1.076797124041832,3,1,50,47,3,1,2
7,36,2,1.4388877643773412,2,1,53,30,2,0,1
7,37,2,1.005515302592357,2,1,49,42,2,0,1
7,38,2,1.093902822402697,3,1,57,44,3,1,2
7,39,2,1.0691836307676112,1,1,35,32,1,0,0
7,40,2,2.033492543691864,1,1,50,38,1,0,0
7,41,2,1.0728765419414683,3,1,53,38,3,1,2
7,42,2,1.349828837202267,1,1,34,31,1,0,0
7,43,2,1.1025102852986493,1,1,45,26,1,0,0
7,44,2,1.6728211772872328,3,1,60,53,3,2,3
7,45,2,0.9734741183897312,3,1,49,46,3,2,3
7,46,2,1.4835822637862748,2,1,51,37,2,0,1
7,47,2,1.1452035333709318,3,1,57,54,3,2,3
7,48,2,1.1864901369337986,3,1,50,33,3,1,2
7,49,2,1.4271809731278609,1,1,41,35,1,0,0
7,50,2,1.5719336020101764,3,1,53,40,3,2,3
7,51,2,1.0983633976150031,3,1,61,36,3,1,2
7,52,2,1.4391966732057426,3,1,53,56,3,2,3
7,53,2,1.2977300833167646,3,1,55,46,3,1,2
7,54,2,1.0838788162614037,3,1,64,35,3,1,2
7,55,2,1.1900492445045074,2,1,48,41,2,0,1
7,56,2,1.3335150377158698,3,1,52,43,3,1,2
7,57,2,1.5475734955543885,2,1,50,39,2,0,1
7,58,2,1.3746579389398903,3,1,54,55,3,2,3
7,59,2,1.1209284195099372,3,1,52,56,3,2,3
7,60,2,1.44936165099989,2,1,49,34,2,0,1
7,61,2,1.2684250462596085,1,1,38,44,1,0,0
7,62,2,1.1267335161298888,1,1,43,33,1,0,0
7,63,2,2.3926323367127225,3,1,55,37,3,1,2
7,64,2,1.3360699355935142,3,1,51,48,3,1,2
7,65,2,1.3707090259747474,1,1,44,40,1,0,0
7,66,2,1.2837718416460575,1,1,39,36,1,0,0
7,67,2,1.300051166224648,2,1,60,36,2,0,1
7,68,2,1.2329636781244062,3,1,48,47,3,2,3
7,69,2,1.3293555206105343,1,1,46,28,1,0,0
7,70,2,1.4727868389136347,1,1,32,32,1,0,0
7,71,2,1.4645179810538589,2,1,43,41,2,0,1
7,72,2,1.413988688816744,1,1,40,31,1,0,0
7,73,2,1.6872938118906404,1,1,38,38,1,0,0
7,74,2,1.570444695591732,2,1,52,42,2,0,1
7,75,2,1.2791238731228989,3,1,55,37,3,1,2
7,76,2,1.3289926807381107,2,1,52,35,2,0,1
7,77,2,1.215040822045694,3,1,62,49,3,2,3
7,78,2,1.1174618139193626,3,1,49,42,3,1,2
7,79,2,1.2851713181053128,3,1,57,52,3,2,3
7,80,2,0.8288447117026863,3,1,46,44,3,2,3
8,1,0,2.2279846139508663,1,1,34,37,1,0,0
8,2,0,2.2153623602953303,1,1,41,35,1,0,0
8,3,0,1.5749189242328612,2,0,51,51,3,2,3
8,4,0,1.971865744468687,2,0,55,43,3,2,3
8,5,0,1.6452016560247102,3,1,53,48,3,1,2
8,6,0,2.448568045446791,2,1,47,33,2,0,1
8,7,0,1.6258564539925828,2,1,52,46,2,0,1
8,8,0,2.567150805876736,1,1,38,32,1,0,0
8,9,0,1.9909583580661088,2,0,54,48,3,2,3
8,10,0,2.1611213834203227,2,0,48,51,3,2,3
8,11,0,1.3906420081189026,2,0,60,45,3,2,3
8,12,0,1.994476505350576,1,0,61,33,3,1,2
8,13,0,1.8769170694145032,1,1,43,38,1,0,0
8,14,0,2.149070867098544,3,1,46,41,3,1,2
8,15,0,1.47737541502147,2,0,50,58,3,2,3
8,16,0,1.5540076739098367,2,1,54,35,2,0,1
8,17,0,2.0494349699129093,1,1,38,37,1,0,0
8,18,0,2.00604198361134,2,0,57,50,3,2,3
8,19,0,2.310458833717348,2,1,50,30,2,0,1
8,20,0,1.9511080952206608,2,0,50,53,3,2,3
8,21,0,1.4499951700995553,2,1,44,39,2,0,1
8,22,0,2.6203903037439886,0,0,57,34,2,0,1
8,23,0,1.67881161920468,3,1,58,36,3,1,2
8,24,0,3.2001940834911693,3,1,49,44,3,1,2
8,25,0,1.820042004773768,3,1,59,37,3,1,2
8,26,0,1.5306995641485628,2,1,52,42,2,0,1
8,27,0,2.8762122111488684,1,1,42,41,1,0,0
8,28,0,2.383174606533885,3,1,64,40,3,1,2
8,29,0,2.9234066533840632,3,1,53,34,3,1,2
8,30,0,2.1400821322013144,2,1,48,36,2,0,1
8,31,0,1.986957903407074,1,1,43,26,1,0,0
8,32,0,1.9983639778856737,2,1,49,38,2,0,1
8,33,0,2.1742238964361604,2,1,54,29,2,0,1
8,34,0,1.9315481930198075,3,1,54,60,3,2,3
8,35,0,2.414808577220356,1,1,37,43,1,0,0
8,36,0,2.807684286302901,2,1,47,33,2,0,1
8,37,0,1.9035624185275992,1,1,32,40,1,0,0
8,38,0,1.400452338098603,2,1,44,28,2,0,1
8,39,0,1.4533972632384575,3,1,55,41,3,1,2
8,40,0,1.6517348217389554,1,1,36,39,1,0,0
8,41,0,1.4332942959049433,2,1,50,41,2,0,1
8,42,0,1.3126771745728547,3,1,49,55,3,2,3
8,43,0,1.677999922858362,2,0,56,49,3,2,3
8,44,0,1.8609995607012024,2,0,51,51,3,2,3
8,45,0,2.8013484126349795,1,0,57,43,3,1,2
8,46,0,1.5979710322026222,3,1,48,39,3,1,2
8,47,0,1.9174817479256487,1,1,44,34,1,0,0
8,48,0,3.0154253026025803,3,1,57,47,3,2,3
8,49,0,2.5231215697890548,3,1,52,45,3,1,2
8,50,0,2.8435228304106204,0,0,39,40,1,0,0
8,51,0,2.0512194730667943,0,0,37,31,1,0,0
8,52,0,1.5002462737229507,3,1,58,42,3,1,2
8,53,0,1.823920602580074,1,1,45,32,1,0,0
8,54,0,1.7681272308423104,3,1,59,35,3,1,2
8,55,0,2.6049370116129467,3,1,52,40,3,1,2
8,56,0,2.505288485005168,0,0,42,39,1,0,0
8,57,0,1.2094227774009596,1,1,38,37,1,0,0
8,58,0,2.2001749686910443,2,1,42,31,2,0,1
8,59,0,1.5234482280748125,3,1,54,40,3,1,2
8,60,0,3.1177993949481784,2,1,53,30,2,0,1
8,61,0,2.186444056611436,2,0,62,53,3,2,3
8,62,0,1.9019427805278608,1,1,39,42,1,0,0
8,63,0,1.7385166983140152,0,0,46,36,1,0,0
8,64,0,1.4975500628570444,2,1,46,36,2,0,1
8,65,0,2.0312301705280333,3,1,56,35,3,1,2
8,66,0,2.0219792897964908,2,0,53,40,3,2,3
8,67,0,1.879436809712388,2,0,56,56,3,2,3
8,68,0,1.2964753332034888,2,1,49,34,2,0,1
8,69,0,2.2501567584304207,3,1,51,47,3,1,2
8,70,0,2.0387218069495248,2,0,47,50,3,2,3
8,71,0,1.5358721656757552,2,1,56,36,2,0,1
8,72,0,2.2812893069422,0,0,50,35,1,0,0
8,73,0,2.13560380753188,2,1,48,38,2,0,1
8,74,0,2.3120061085437555,2,0,60,55,3,2,3
8,75,0,2.474768634114298,1,0,54,40,3,1,2
8,76,0,2.0461182107046625,1,0,52,46,3,1,2
8,77,0,1.0952343730532448,2,1,45,33,2,0,1
8,78,0,1.3963904430092953,2,0,44,52,3,2,3
8,79,0,2.231308199874547,1,1,30,44,1,0,0
8,80,0,1.110488666459787,2,0,55,46,3,2,3
8,1,1,2.0423686378007915,1,0,51,38,3,1,2
8,2,1,2.570594200637061,0,0,40,30,1,0,0
8,3,1,1.4518363349834544,3,1,56,46,3,1,2
8,4,1,1.4622760880329224,3,1,54,50,3,2,3
8,5,1,2.1021754349549155,1,1,39,41,1,0,0
8,6,1,1.2730958842766995,3,1,55,47,3,2,3
8,7,1,1.0293483866935276,3,1,52,48,3,2,3
8,8,1,1.0891886347490072,3,1,54,51,3,2,3
8,9,1,1.5896386858985352,2,1,60,40,2,0,1
8,10,1,2.7152178046171684,0,0,39,33,1,0,0
8,11,1,1.2377451089150782,3,1,57,43,3,1,2
8,12,1,3.1064260886987536,1,1,45,31,1,0,0
8,13,1,2.402675798990458,0,0,37,36,1,0,0
8,14,1,1.620038727951396,3,1,52,30,3,1,2
8,15,1,0.9499055694723212,3,1,50,47,3,1,2
8,16,1,0.9024172371809982,3,1,60,39,3,1,2
8,17,1,1.7195213653976682,2,1,49,35,2,0,1
8,18,1,2.0454744515327548,2,1,57,39,2,0,1
8,19,1,1.044752526481716,3,1,51,49,3,2,3
8,20,1,2.9564899355455045,0,0,42,38,1,0,0
8,21,1,0.9615304401486356,3,1,60,48,3,1,2
8,22,1,1.975220391942457,2,1,42,36,2,0,1
8,23,1,1.5741737883518,0,0,37,38,1,0,0
8,24,1,1.068174642374288,3,1,56,52,3,2,3
8,25,1,1.4199132529392955,0,0,52,32,2,0,1
8,26,1,1.4460397717557498,2,1,46,29,2,0,1
8,27,1,1.7439917232914013,0,0,43,44,1,0,0
8,28,1,1.2547480652237937,2,1,47,33,2,0,1
8,29,1,1.8625427394990768,0,0,34,36,1,0,0
8,30,1,1.2450879229618297,3,1,48,34,3,1,2
8,31,1,1.652390868996008,2,1,51,37,2,0,1
8,32,1,1.2085902595754303,3,1,44,50,3,1,2
8,33,1,0.9679557437757468,3,1,57,56,3,2,3
8,34,1,0.9239510838606292,3,1,54,44,3,2,3
8,35,1,1.220690952248333,3,1,58,40,3,2,3
8,36,1,1.7289586154338394,0,0,53,34,2,0,1
8,37,1,0.8717052142783359,3,1,52,38,3,1,2
8,38,1,0.9773482788323236,3,1,59,53,3,2,3
8,39,1,0.9964490844868124,3,1,59,45,3,1,2
8,40,1,0.8763996044599479,3,1,46,46,3,1,2
8,41,1,0.9510128625543076,3,1,58,40,3,1,2
8,42,1,2.4961082607687786,1,1,33,33,1,0,0
8,43,1,0.9058869147929728,3,1,47,50,3,2,3
8,44,1,0.970583004826949,3,1,54,45,3,2,3
8,45,1,2.2826884420646816,2,1,52,43,2,0,1
8,46,1,1.0681814690888132,3,1,53,43,3,2,3
8,47,1,1.816248399562028,1,1,41,37,1,0,0
8,48,1,1.592373126365601,2,1,53,26,2,0,1
8,49,1,0.8850207207842686,3,1,50,36,3,1,2
8,50,1,1.7993478439702812,2,1,48,34,2,0,1
8,51,1,1.3035164064722269,2,1,54,42,2,0,1
8,52,1,0.9188180772771376,2,1,54,38,2,0,1
8,53,1,3.0865879978855446,0,0,44,28,1,0,0
8,54,1,1.400263238107982,1,1,37,46,1,0,0
8,55,1,1.2685991274775006,3,1,57,41,3,1,2
8,56,1,2.9659408390098183,1,1,40,31,1,0,0
8,57,1,1.0439753050432046,3,1,49,42,3,1,2
8,58,1,0.9840036427349332,3,1,62,35,3,1,2
8,59,1,0.9363647813897842,3,1,61,46,3,2,3
8,60,1,1.655309630753436,1,1,42,35,1,0,0
8,61,1,1.1070616558126858,3,1,53,55,3,2,3
8,62,1,1.4935851071131765,2,0,55,48,3,2,3
8,63,1,3.1435077775058744,0,0,56,39,2,0,1
8,64,1,2.030190803255209,1,1,36,41,1,0,0
8,65,1,0.9122507779893568,3,1,49,45,3,2,3
8,66,1,0.958905568449154,3,1,55,51,3,2,3
8,67,1,1.3401884924123806,1,1,41,35,1,0,0
8,68,1,1.238175191923801,3,1,53,44,3,2,3
8,69,1,1.2667924375018629,3,1,51,40,3,1,2
8,70,1,1.5885180807235884,1,1,35,37,1,0,0
8,71,1,1.1855408822912068,1,1,43,34,1,0,0
8,72,1,0.9451255040248724,3,1,64,58,3,2,3
8,73,1,1.668254446665742,2,1,50,30,2,0,1
8,74,1,2.088486848505454,2,1,49,39,2,0,1
8,75,1,1.4375483630055896,2,1,50,32,2,0,1
8,76,1,1.2557778750961006,1,1,38,42,1,0,0
8,77,1,1.9310303867296168,3,1,48,44,3,1,2
8,78,1,1.1064452034997885,3,1,56,32,3,1,2
8,79,1,1.348376112369806,2,1,47,36,2,0,1
8,80,1,2.0900737182764715,2,1,55,40,2,0,1
8,1,2,1.6039430419905332,0,0,56,42,2,0,1
8,2,2,1.5447417744062475,2,1,49,28,2,0,1
8,3,2,2.6242678775442982,3,1,50,30,3,1,2
8,4,2,1.5140065406749272,3,1,59,50,3,2,3
8,5,2,2.3419545634360475,0,0,43,35,1,0,0
8,6,2,2.0295152998614867,1,1,48,41,1,0,0
8,7,2,1.4144819189350528,3,1,49,48,3,2,3
8,8,2,1.506852826618342,3,1,54,36,3,1,2
8,9,2,1.3825714663134931,0,0,55,36,2,0,1
8,10,2,1.891737866453696,1,1,40,44,1,0,0
8,11,2,1.4128650116208517,3,1,55,38,3,1,2
8,12,2,1.6360047063371894,1,1,45,35,1,0,0
8,13,2,2.9732078765264305,3,1,54,49,3,2,3
8,14,2,2.0844693270601056,1,1,34,39,1,0,0
8,15,2,2.030622251607383,1,1,34,46,1,0,0
8,16,2,2.4230091679364705,0,0,47,26,1,0,0
8,17,2,1.6680708080475597,2,1,54,35,2,0,1
8,18,2,1.3205859232466537,3,1,54,42,3,1,2
8,19,2,1.6394501491131448,3,1,62,38,3,1,2
8,20,2,2.94903755273208,2,1,47,40,2,0,1
8,21,2,1.3107192728730297,2,1,50,38,2,0,1
8,22,2,1.133990654911031,3,1,64,55,3,2,3
8,23,2,1.2259311382485976,3,1,52,51,3,2,3
8,24,2,1.4264931816487658,0,0,33,32,1,0,0
8,25,2,1.3025432583290242,3,1,56,46,3,2,3
8,26,2,1.823920943916164,3,1,53,42,3,1,2
8,27,2,1.454506262997711,3,1,60,37,3,1,2
8,28,2,1.1307442108609391,3,1,47,46,3,1,2
8,29,2,1.7733773155787276,1,1,50,29,1,0,0
8,30,2,1.4875004565365089,2,1,52,37,2,0,1
8,31,2,1.7337912465827685,3,1,59,43,3,2,3
8,32,2,1.4161227197491826,3,1,51,45,3,2,3
8,33,2,1.3762130644881836,1,1,35,39,1,0,0
8,34,2,2.0947237348136696,0,0,35,33,1,0,0
8,35,2,1.81441610940783,2,1,52,34,2,0,1
8,36,2,2.1964677214164112,2,1,45,39,2,0,1
8,37,2,0.946443059910962,3,1,55,53,3,2,3
8,38,2,1.0322251641564435,3,1,52,41,3,1,2
8,39,2,1.2739577569736866,3,1,48,54,3,2,3
8,40,2,1.7510594207469694,2,1,47,31,2,0,1
8,41,2,1.0894770634340605,3,1,55,42,3,2,3
8,42,2,1.550660877158407,3,1,51,40,3,1,2
8,43,2,1.6628012671744727,1,1,37,40,1,0,0
8,44,2,2.0183256322306997,1,1,43,34,1,0,0
8,45,2,1.3928548876037894,3,1,58,38,3,1,2
8,46,2,1.5852317003946157,1,1,44,38,1,0,0
8,47,2,1.3220048558423514,3,1,52,53,3,2,3
8,48,2,1.1106641130199932,3,1,57,44,3,2,3
8,49,2,1.034487878656364,3,1,58,60,3,2,3
8,50,2,1.314891760735918,3,1,53,39,3,1,2
8,51,2,1.0520301454062064,3,1,57,41,3,1,2
8,52,2,2.499115769812306,2,1,53,42,2,0,1
8,53,2,1.0800067038335328,3,1,48,40,3,1,2
8,54,2,1.0904921958699558,3,1,50,36,3,1,2
8,55,2,1.468337527780932,2,1,40,33,2,0,1
8,56,2,1.0578536741541031,3,1,54,44,3,1,2
8,57,2,1.1075514725735047,3,1,44,46,3,2,3
8,58,2,1.4833091952095856,1,1,43,34,1,0,0
8,59,2,1.3429836906379933,3,1,56,40,3,1,2
8,60,2,1.7360266542236786,2,1,57,43,2,0,1
8,61,2,0.9116575365051176,3,1,51,46,3,1,2
8,62,2,1.096711332720588,3,1,60,56,3,2,3
8,63,2,1.1047637837345974,3,1,61,37,3,1,2
8,64,2,2.325768423509544,2,1,44,36,2,0,1
8,65,2,2.0004864034035563,1,1,39,31,1,0,0
8,66,2,1.9092910559456868,2,1,50,30,2,0,1
8,67,2,1.2418367002119342,2,1,50,37,2,0,1
8,68,2,1.04695516589436,2,1,51,36,2,0,1
8,69,2,1.4692727876581555,3,1,49,49,3,2,3
8,70,2,1.2799935965413172,3,1,57,47,3,2,3
8,71,2,1.0134933424169503,3,1,46,58,3,2,3
8,72,2,1.214105903503878,1,1,45,38,1,0,0
8,73,2,1.9301702207112608,3,1,53,48,3,2,3
8,74,2,2.3147135834897203,1,1,39,36,1,0,0
8,75,2,1.3783027217768904,2,1,52,32,2,0,1
8,76,2,2.112349628814627,3,1,56,42,3,1,2
8,77,2,3.114294218421492,1,1,41,41,1,0,0
8,78,2,1.1520916882363963,1,1,32,30,1,0,0
8,79,2,1.2783575744279003,2,1,51,33,2,0,1
8,80,2,1.272320710852,2,1,48,37,2,0,1
9,1,0,1.7444540814567515,2,0,59,45,3,2,3
9,2,0,2.844478077276108,0,0,54,34,2,0,1
9,3,0,3.054650393200518,2,1,51,39,2,0,1
9,4,0,3.1870294916470807,3,1,52,37,3,1,2
9,5,0,2.7677706450235746,2,1,42,38,2,0,1
9,6,0,2.864658800270263,2,0,56,51,3,2,3
9,7,0,1.9189238267563269,3,1,47,50,3,1,2
9,8,0,1.5488086229297549,3,1,55,41,3,1,2
9,9,0,1.3469966143024976,3,1,52,48,3,2,3
9,10,0,1.7915125114477632,3,1,54,53,3,2,3
9,11,0,1.3951527762274054,3,1,52,39,3,1,2
9,12,0,1.3284932093197312,3,1,50,48,3,2,3
9,13,0,1.1674860402699778,3,1,64,47,3,2,3
9,14,0,1.4296866173299352,2,1,50,29,2,0,1
9,15,0,2.197458627691958,0,0,44,39,1,0,0
9,16,0,1.9020885237519,3,1,56,35,3,1,2
9,17,0,1.40301746574778,3,1,46,32,3,1,2
9,18,0,1.9815652032630169,1,1,45,26,1,0,0
9,19,0,3.6208568384840873,1,1,43,30,1,0,0
9,20,0,1.6982537665412565,3,1,48,39,3,1,2
9,21,0,1.6726171519931086,2,1,55,40,2,0,1
9,22,0,2.2668891485304807,1,1,47,32,1,0,0
9,23,0,1.929133484681188,2,1,45,36,2,0,1
9,24,0,1.6723195082595343,3,1,57,36,3,1,2
9,25,0,1.5972852980039534,2,1,46,37,2,0,1
9,26,0,2.443016073103081,1,1,34,30,1,0,0
9,27,0,1.4818008947745511,3,1,59,41,3,1,2
9,28,0,1.4077568960674398,1,1,30,41,1,0,0
9,29,0,1.4767112551999162,3,1,51,58,3,2,3
9,30,0,1.6904505172410609,2,1,52,28,2,0,1
9,31,0,1.4324504032356344,2,1,46,46,2,0,1
9,32,0,1.9201225937190431,0,0,40,33,1,0,0
9,33,0,1.3458521195339015,3,1,57,46,3,1,2
9,34,0,2.3075356088738768,2,0,51,50,3,2,3
9,35,0,1.4422634304055464,3,1,60,44,3,2,3
9,36,0,1.3994102421529533,3,1,53,43,3,2,3
9,37,0,2.6366220576533124,1,1,37,36,1,0,0
9,38,0,1.3883994720235933,3,1,55,56,3,2,3
9,39,0,1.8563623225359152,2,1,55,42,2,0,1
9,40,0,2.353005467838102,1,1,37,36,1,0,0
9,41,0,1.4877510387664188,2,1,50,42,2,0,1
9,42,0,2.054196759574552,1,1,44,35,1,0,0
9,43,0,1.3665660071055754,3,1,53,43,3,1,2
9,44,0,1.4654943189984806,3,1,44,40,3,1,2
9,45,0,2.238983000514964,2,1,60,39,2,0,1
9,46,0,2.363173141612606,2,0,58,49,3,2,3
9,47,0,1.6653474086051574,1,1,42,31,1,0,0
9,48,0,1.5091438407716848,2,1,57,37,2,0,1
9,49,0,1.2787955805365527,2,1,49,43,2,0,1
9,50,0,2.730846096685582,0,0,40,35,1,0,0
9,51,0,1.355787685809446,3,1,61,47,3,2,3
9,52,0,1.3476024831402356,3,1,50,53,3,2,3
9,53,0,2.056989558917394,1,1,33,31,1,0,0
9,54,0,2.1558168357805703,1,1,40,40,1,0,0
9,55,0,1.2933347259786387,2,1,50,36,2,0,1
9,56,0,1.2706595300437584,3,1,48,48,3,1,2
9,57,0,1.5889891616038767,2,1,52,35,2,0,1
9,58,0,1.59004456805269,3,1,55,39,3,1,2
9,59,0,1.675350900457488,2,0,56,54,3,2,3
9,60,0,1.427789821198985,3,1,49,40,3,2,3
9,61,0,1.216884659981588,3,1,62,36,3,1,2
9,62,0,1.6162740807262708,1,1,42,38,1,0,0
9,63,0,1.3807136418108712,3,1,49,38,3,1,2
9,64,0,1.4850876052205422,1,1,43,33,1,0,0
9,65,0,1.1879865937439718,3,1,54,56,3,2,3
9,66,0,1.5871237682517858,1,1,46,37,1,0,0
9,67,0,1.2483563887758464,3,1,54,38,3,1,2
9,68,0,1.3648699156933617,2,1,44,34,2,0,1
9,69,0,1.5020730954302053,3,1,57,42,3,1,2
9,70,0,3.7897215290286113,2,0,51,51,3,2,3
9,71,0,1.2444399160726791,2,1,47,44,2,0,1
9,72,0,1.5623643835137957,1,1,35,33,1,0,0
9,73,0,1.5132429274626702,1,1,41,38,1,0,0
9,74,0,1.6289597795253032,2,1,53,32,2,0,1
9,75,0,1.2666529450175403,2,1,49,34,2,0,1
9,76,0,1.4076510823547324,3,1,54,38,3,1,2
9,77,0,1.1931926284023575,3,1,53,45,3,1,2
9,78,0,1.4126444655844352,3,1,58,48,3,2,3
9,79,0,1.3170247095495142,0,0,34,41,1,0,0
9,1,1,1.1609604062150538,2,0,46,50,3,2,3
9,2,1,1.6480649573313713,0,0,42,39,2,0,1
9,3,1,2.123197881541273,0,0,36,28,1,0,0
9,4,1,1.4234425842846576,1,1,45,37,1,0,0
9,5,1,1.6695168102146454,2,1,48,31,2,0,1
9,6,1,1.9171908712123693,1,0,64,37,3,1,2
9,7,1,1.3111715045720302,3,1,55,41,3,1,2
9,8,1,1.4142879914747937,3,1,53,57,3,2,3
9,9,1,1.2868759934967784,2,1,52,36,2,0,1
9,10,1,1.729146591927929,3,1,48,43,3,1,2
9,11,1,1.7874482408810763,0,0,47,42,2,0,1
9,12,1,1.7641996028910398,3,1,58,39,3,1,2
9,13,1,1.327663425012361,2,1,55,33,2,0,1
9,14,1,1.3131805997727497,3,1,52,50,3,1,2
9,15,1,1.810919770336568,3,1,55,48,3,2,3
9,16,1,2.315459349273169,3,1,44,50,3,2,3
9,17,1,1.680717021023156,2,0,61,50,3,2,3
9,18,1,1.1028830140662649,3,1,51,36,3,1,2
9,19,1,1.8508729801956176,2,0,57,45,3,2,3
9,20,1,1.1794409417830138,3,1,53,40,3,1,2
9,21,1,1.426375672130689,3,1,58,48,3,1,2
9,22,1,2.0426292727829605,3,1,50,53,3,2,3
9,23,1,1.1568637088657852,2,1,44,43,2,0,1
9,24,1,1.5048775001473589,1,1,33,35,1,0,0
9,25,1,1.3320878035356143,2,1,53,37,2,0,1
9,26,1,1.6191638190834965,3,1,57,46,3,1,2
9,27,1,2.0974431652362,0,0,51,38,2,0,1
9,28,1,1.4944326627132796,1,1,35,30,1,0,0
9,29,1,1.672349204366128,3,1,56,46,3,1,2
9,30,1,1.89237755561453,1,1,35,26,1,0,0
9,31,1,1.4970513814323567,3,1,54,48,3,2,3
9,32,1,1.1727036803031297,3,1,51,41,3,1,2
9,33,1,1.994094570834932,2,1,51,36,2,0,1
9,34,1,1.3627522761044022,3,1,54,46,3,2,3
9,35,1,1.365792201665954,1,1,38,37,1,0,0
9,36,1,1.2207209190637514,3,1,47,42,3,1,2
9,37,1,1.4760084473477946,1,1,37,32,1,0,0
9,38,1,1.1420962106062689,1,1,42,34,1,0,0
9,39,1,1.6774268972312711,2,1,43,38,2,0,1
9,40,1,1.5037599708089149,1,1,40,42,1,0,0
9,41,1,1.2707953811973312,2,1,58,35,2,0,1
9,42,1,1.5006429036375266,3,1,56,47,3,2,3
9,43,1,1.3720434027368356,3,1,50,53,3,2,3
9,44,1,1.3308432977423763,2,1,54,34,2,0,1
9,45,1,1.175225801342549,3,1,60,34,3,1,2
9,46,1,1.6431760224759269,2,1,45,36,2,0,1
9,47,1,1.2306148425236645,3,1,59,38,3,1,2
9,48,1,2.7729039754212863,0,0,41,41,1,0,0
9,49,1,2.632363909058768,3,1,52,40,3,1,2
9,50,1,1.4146736995235187,0,0,60,29,2,0,1
9,51,1,1.5208226026284135,3,1,52,34,3,1,2
9,52,1,1.1594479527948351,2,0,60,50,3,2,3
9,53,1,1.2545478562997232,1,1,38,34,1,0,0
9,54,1,1.2526322867674935,3,1,62,47,3,1,2
9,55,1,1.4689960702153255,3,1,51,46,3,2,3
9,56,1,1.5158961209717745,1,1,37,40,1,0,0
9,57,1,1.5879654992686485,3,1,55,52,3,2,3
9,58,1,1.3762824365962842,2,1,49,40,2,0,1
9,59,1,1.711727265497302,3,1,53,54,3,2,3
9,60,1,1.6085186182640427,3,1,49,51,3,2,3
9,61,1,1.2047283710799093,2,1,49,33,2,0,1
9,62,1,2.7890757240475077,0,0,45,30,1,0,0
9,63,1,1.3576848232755765,3,1,57,43,3,1,2
9,64,1,1.732112106556542,1,1,32,39,1,0,0
9,65,1,3.124524648962961,0,0,39,46,1,0,0
9,66,1,1.2313343757691655,3,1,49,42,3,1,2
9,67,1,1.525012825646172,1,1,30,33,1,0,0
9,68,1,1.230819643257291,3,1,59,44,3,1,2
9,69,1,1.9959650842051813,3,1,48,55,3,2,3
9,70,1,1.2166129576739877,2,1,40,41,2,0,1
9,71,1,1.5246022001742858,0,0,52,31,2,0,1
9,72,1,1.34251830491894,3,1,56,44,3,2,3
9,73,1,1.4699876471022435,0,0,39,38,1,0,0
9,74,1,1.534294394911285,0,0,43,32,1,0,0
9,75,1,1.556335732574098,2,1,49,44,2,0,1
9,76,1,1.4123181497484438,0,0,44,36,1,0,0
9,77,1,1.392545662883549,3,1,54,56,3,2,3
9,78,1,1.5451792125891188,1,1,40,39,1,0,0
9,79,1,2.111366884472318,2,1,47,35,2,0,1
9,80,1,1.119970563307561,2,0,54,56,3,2,3
9,1,2,1.5430728370397446,3,1,51,37,3,1,2
9,2,2,1.3477021528315165,0,0,42,42,1,0,0
9,3,2,1.8047323988275816,2,1,55,35,2,0,1
9,4,2,1.4952276308958972,3,1,62,41,3,1,2
9,5,2,2.4605517946179134,3,1,44,47,3,2,3
9,6,2,1.634007776283852,2,1,46,33,2,0,1
9,7,2,2.59652002592793,3,1,54,38,3,1,2
9,8,2,1.3406211674532642,2,1,52,39,2,0,1
9,9,2,1.5224142456663683,2,1,47,44,2,0,1
9,10,2,1.55897868604643,2,1,53,33,2,0,1
9,11,2,1.2875354518600943,3,1,46,34,3,1,2
9,12,2,2.0155218476302252,3,1,55,43,3,1,2
9,13,2,1.3599782501619302,2,0,59,45,3,2,3
9,14,2,1.8394553392745363,2,0,49,53,3,2,3
9,15,2,1.3013315119719664,2,1,57,46,2,0,1
9,16,2,1.7021507831750569,1,1,48,30,1,0,0
9,17,2,1.204579890547393,2,1,46,40,2,0,1
9,18,2,1.7408949860346183,3,1,52,58,3,2,3
9,19,2,1.8130496979702,3,1,55,40,3,1,2
9,20,2,1.5310585433135202,3,1,48,35,3,1,2
9,21,2,1.5162886557118327,1,1,44,31,1,0,0
9,22,2,1.5399960473459942,3,1,56,40,3,2,3
9,23,2,1.3650706204130074,3,1,48,36,3,1,2
9,24,2,1.6507164441677558,1,1,42,32,1,0,0
9,25,2,1.6597938953677842,1,1,40,39,1,0,0
9,26,2,1.8072251650946785,3,1,58,49,3,2,3
9,27,2,1.3185026881801605,2,1,56,34,2,0,1
9,28,2,1.5046508540017385,2,0,53,44,3,2,3
9,29,2,1.6803743211280562,3,1,56,46,3,1,2
9,30,2,1.2371657353351109,2,1,54,40,2,0,1
9,31,2,0.9660061501658674,3,1,55,42,3,2,3
9,32,2,1.0371798665860297,0,0,35,38,1,0,0
9,33,2,1.2706718180875214,2,0,51,54,3,2,3
9,34,2,1.0883564980031224,2,1,50,32,2,0,1
9,35,2,0.9557490467382196,2,1,50,31,2,0,1
9,36,2,1.0507141230928028,1,1,45,39,1,0,0
9,37,2,1.5549017861017091,3,1,61,51,3,2,3
9,38,2,1.7197776410162078,1,1,30,33,1,0,0
9,39,2,1.317923102102668,1,1,43,37,1,0,0
9,40,2,1.2883573854728638,2,1,43,36,2,0,1
9,41,2,1.1192431793674589,3,1,52,40,3,1,2
9,42,2,1.0151965557979563,3,1,58,34,3,1,2
9,43,2,1.7556775030147946,0,0,45,36,1,0,0
9,44,2,0.7886514451938638,1,1,36,29,1,0,0
9,45,2,1.522501627312522,3,1,50,52,3,2,3
9,46,2,1.0202558165970004,2,0,64,47,3,2,3
9,47,2,1.1600005734421757,2,1,56,42,2,0,1
9,48,2,1.4500332289189828,3,1,49,48,3,2,3
9,49,2,1.3903710204231174,0,0,41,30,1,0,0
9,50,2,1.2429107372590806,2,1,50,37,2,0,1
9,51,2,1.1593435044201217,2,1,52,35,2,0,1
9,52,2,1.0240814943081205,2,1,49,36,2,0,1
9,53,2,1.0831159885542547,3,1,53,32,3,1,2
9,54,2,1.0803392319357954,3,1,59,43,3,1,2
9,55,2,1.2574355466490488,2,0,54,51,3,2,3
9,56,2,1.4164940367145389,1,1,39,38,1,0,0
9,57,2,1.2190251689862637,2,1,60,34,2,0,1
9,58,2,1.0981736211879252,2,1,44,36,2,0,1
9,59,2,1.337298275543617,3,1,56,38,3,1,2
9,60,2,1.5147038393652108,1,1,42,41,1,0,0
9,61,2,1.3572840965061914,3,1,54,53,3,2,3
9,62,2,1.5166668544006825,1,1,47,28,1,0,0
9,63,2,1.0033358626224071,2,1,49,41,2,0,1
9,64,2,1.0231349735822732,2,0,60,45,3,2,3
9,65,2,1.1874309010854631,3,1,50,50,3,2,3
9,66,2,1.5208017812210528,1,1,39,34,1,0,0
9,67,2,1.2262481495399695,1,0,57,50,3,1,2
9,68,2,1.5741827512038071,0,0,39,38,1,0,0
9,69,2,1.0599308387918431,3,1,51,37,3,1,2
9,70,2,1.4482528278713291,1,1,40,35,1,0,0
9,71,2,1.1244290752865709,3,1,54,48,3,2,3
9,72,2,1.3614473540947074,2,1,55,37,2,0,1
9,73,2,1.6659621521421286,3,1,47,38,3,1,2
9,74,2,1.0456364302281145,3,1,60,46,3,1,2
9,75,2,0.9732608748336132,3,1,57,37,3,1,2
9,76,2,0.9284166821116742,3,1,53,48,3,2,3
9,77,2,0.9842286368084388,1,1,44,43,1,0,0
9,78,2,1.038088840509772,1,1,41,26,1,0,0
9,79,2,1.0005526206477953,3,1,52,33,3,1,2
9,80,2,1.132874374888161,2,0,57,51,3,2,3
10,1,0,1.28541796159152,2,0,61,52,3,2,3
10,2,0,1.57762226734485,1,0,54,37,3,1,2
10,3,0,1.564730875817986,2,0,51,51,3,2,3
10,4,0,1.21724493268448,2,1,50,35,2,0,1
10,5,0,1.9297806913782551,1,0,59,50,3,1,2
10,6,0,1.9858832299614733,2,0,56,58,3,2,3
10,7,0,1.2740386666646373,2,0,48,44,3,2,3
10,8,0,1.4084551799896872,1,0,56,34,3,1,2
10,9,0,1.0763444945187075,2,0,51,49,3,2,3
10,10,0,1.2721534952142974,1,1,43,40,1,0,0
10,11,0,1.0341245728668582,1,1,40,28,1,0,0
10,12,0,1.1165198431117458,1,1,48,41,1,0,0
10,13,0,1.3311136574411648,2,1,51,34,2,0,1
10,14,0,1.2616678050053451,2,0,49,49,3,2,3
10,15,0,1.1326197466169106,2,0,62,52,3,2,3
10,16,0,1.1294723328992404,2,1,55,46,2,0,1
10,17,0,0.996219075832414,2,0,60,47,3,2,3
10,18,0,1.3107153718792688,1,0,44,35,3,1,2
10,19,0,1.1718059177928808,2,0,53,50,3,2,3
10,20,0,1.1168471795972437,2,1,50,34,2,0,1
10,21,0,1.2855473260642611,2,1,48,38,2,0,1
10,22,0,1.9957671535066768,1,0,57,43,3,1,2
10,23,0,1.3119127612408192,2,0,57,53,3,2,3
10,24,0,0.9741230095696664,3,1,49,45,3,1,2
10,25,0,1.2312572554183134,2,1,53,36,2,0,1
10,26,0,1.9968447356677643,3,1,53,46,3,2,3
10,27,0,1.3967652737974277,2,1,40,32,2,0,1
10,28,0,1.812895624034354,0,0,32,36,1,0,0
10,29,0,1.1364754222868214,0,0,44,33,1,0,0
10,30,0,1.7332767406423957,0,0,38,39,1,0,0
10,31,0,1.0868684138040408,3,1,55,34,3,1,2
10,32,0,1.4938299290679424,0,0,41,44,1,0,0
10,33,0,1.3362493245913356,0,0,30,35,1,0,0
10,34,0,1.1133454642404104,3,1,54,41,3,1,2
10,35,0,0.9553214707138976,3,1,52,39,3,1,2
10,36,0,1.016674705013429,3,1,59,50,3,2,3
10,37,0,1.5827790970215574,0,0,42,42,1,0,0
10,38,0,1.6905847581347189,3,1,52,33,3,1,2
10,39,0,1.3791225538934668,0,0,47,30,2,0,1
10,40,0,1.1357558964082273,0,0,46,39,1,0,0
10,41,0,1.6465752377280296,0,0,42,31,1,0,0
10,42,0,1.272003650878105,3,1,51,52,3,2,3
10,43,0,1.008294686123918,1,1,38,32,1,0,0
10,44,0,2.182505963906806,3,1,55,43,3,2,3
10,45,0,1.5069397724764713,2,1,51,37,2,0,1
10,46,0,1.5170612624406203,2,1,47,26,2,0,1
10,47,0,1.74012588972073,3,1,50,45,3,1,2
10,48,0,1.466139105377806,2,1,53,38,2,0,1
10,49,0,1.8692691794785787,1,1,39,37,1,0,0
10,50,0,1.1875269438205578,1,0,54,36,3,1,2
10,51,0,1.2839287341703312,3,1,46,40,3,1,2
10,52,0,1.0893120028722478,3,1,58,42,3,1,2
10,53,0,1.3191964247616852,1,1,38,29,1,0,0
10,54,0,0.9109450194155216,2,1,44,31,2,0,1
10,55,0,1.0349096343088604,1,0,64,40,3,1,2
10,56,0,0.91242946820239,3,1,53,37,3,1,2
10,57,0,1.619013437179092,1,1,44,38,1,0,0
10,58,0,1.7545082153264957,2,1,56,33,2,0,1
10,59,0,1.1329453764483333,2,1,55,40,2,0,1
10,60,0,1.2489354737517715,3,1,54,42,3,2,3
10,61,0,1.2183177362112474,3,1,55,40,3,1,2
10,62,0,1.561256466944542,0,0,43,30,1,0,0
10,63,0,0.9313375023502886,1,0,60,35,3,1,2
10,64,0,2.0602954493406287,1,1,47,39,1,0,0
10,65,0,2.3860211959763538,2,1,60,42,2,0,1
10,66,0,1.5902477619783897,1,1,36,35,1,0,0
10,67,0,1.4990004119863445,3,1,47,41,3,1,2
10,68,0,1.944020681930852,3,1,57,45,3,2,3
10,69,0,1.2047040881570863,3,1,52,48,3,2,3
10,70,0,1.6175853080185334,3,1,48,37,3,1,2
10,71,0,2.3589427202114166,1,1,39,34,1,0,0
10,72,0,1.4031208581600367,3,1,56,54,3,2,3
10,73,0,1.6166978472592746,3,1,50,57,3,2,3
10,74,0,1.5309418313845526,2,1,48,41,2,0,1
10,75,0,1.2518398597549094,1,1,46,36,1,0,0
10,76,0,1.7880105416679726,2,1,49,37,2,0,1
10,77,0,1.6995409438550269,2,1,54,33,2,0,1
10,78,0,2.0592008006260585,2,1,46,43,2,0,1
10,79,0,1.3873421471835172,3,1,58,56,3,2,3
10,1,1,1.3075000332792115,0,0,57,30,2,0,1
10,2,1,1.44626954162959,0,0,41,40,1,0,0
10,3,1,2.1224719741603617,3,1,57,37,3,1,2
10,4,1,0.961597183610138,3,1,51,42,3,1,2
10,5,1,1.8390245167865944,2,1,40,41,2,0,1
10,6,1,1.1461897042936469,3,1,50,49,3,2,3
10,7,1,1.4837760226528192,0,0,50,33,2,0,1
10,8,1,2.4911586721809726,2,0,58,49,3,2,3
10,9,1,1.3446214928662812,2,1,54,34,2,0,1
10,10,1,1.7186281768099434,2,0,57,55,3,2,3
10,11,1,1.6657706726309698,2,0,46,46,3,2,3
10,12,1,1.1956161486468773,3,1,56,43,3,2,3
10,13,1,1.9380705988678528,0,0,34,36,1,0,0
10,14,1,1.4594636938109034,2,0,47,56,3,2,3
10,15,1,1.1550660185457673,3,1,64,44,3,1,2
10,16,1,1.6885941153850583,2,0,48,42,3,2,3
10,17,1,1.604866971340016,2,1,58,37,2,0,1
10,18,1,1.62105766890636,0,0,39,31,1,0,0
10,19,1,1.2639673523663078,3,1,56,43,3,1,2
10,20,1,1.9494232699707936,2,0,52,46,3,2,3
10,21,1,1.8340076328458963,0,0,35,37,1,0,0
10,22,1,1.5084651809884235,2,0,60,53,3,2,3
10,23,1,1.0802762870152949,3,1,51,38,3,1,2
10,24,1,1.6706882292328369,0,0,44,33,1,0,0
10,25,1,1.4468054313965697,2,1,51,41,2,0,1
10,26,1,1.2078026915314697,3,1,48,48,3,2,3
10,27,1,1.3247457851575746,0,0,36,34,1,0,0
10,28,1,2.2001264972914214,1,1,46,33,1,0,0
10,29,1,2.2610906141817395,3,1,59,52,3,2,3
10,30,1,1.0440033764480177,1,0,54,50,3,1,2
10,31,1,2.1136297930133883,1,1,36,38,1,0,0
10,32,1,1.8443980916854343,2,1,48,35,2,0,1
10,33,1,1.7118937149680278,3,1,55,41,3,1,2
10,34,1,1.818669580268761,0,0,32,39,1,0,0
10,35,1,1.4008650011746795,2,0,61,47,3,2,3
10,36,1,0.9925514735768955,3,1,44,33,3,1,2
10,37,1,1.873131340438704,1,1,43,34,1,0,0
10,38,1,1.3505125256542672,1,1,43,39,1,0,0
10,39,1,1.2093308306939434,1,1,34,36,1,0,0
10,40,1,2.116964597484184,3,1,53,52,3,2,3
10,41,1,1.2987721980389324,3,1,58,37,3,1,2
10,42,1,1.9737536893626384,3,1,50,54,3,2,3
10,43,1,1.3794505730438686,2,1,45,35,2,0,1
10,44,1,1.3997792270693026,2,1,60,38,2,0,1
10,45,1,2.1119565881508606,3,1,54,50,3,2,3
10,46,1,2.43148478670264,1,1,40,35,1,0,0
10,47,1,1.4832711940125591,2,1,51,32,2,0,1
10,48,1,1.3398274981082068,2,0,53,50,3,2,3
10,49,1,1.2885749325796496,3,1,54,47,3,1,2
10,50,1,1.9101869231308228,2,1,55,42,2,0,1
10,51,1,1.6962976161103145,3,1,57,38,3,1,2
10,52,1,1.1123282976768678,3,1,53,42,3,1,2
10,53,1,1.9838919045487275,1,1,39,43,1,0,0
10,54,1,2.065277176181554,3,1,54,48,3,2,3
10,55,1,1.5179429205727502,1,1,39,30,1,0,0
10,56,1,1.4067447700399498,2,1,44,40,2,0,1
10,57,1,1.364220381081395,2,1,51,31,2,0,1
10,58,1,1.6840168658509356,3,1,55,45,3,1,2
10,59,1,1.5655845448036416,0,0,38,32,1,0,0
10,60,1,1.213473907118896,2,1,50,37,2,0,1
10,61,1,1.5088160693212558,1,1,45,44,1,0,0
10,62,1,1.024096948944134,1,1,42,36,1,0,0
10,63,1,1.6688208069954271,3,1,49,37,3,1,2
10,64,1,0.9588952069279912,3,1,56,35,3,1,2
10,65,1,1.5043654536093527,1,1,46,26,1,0,0
10,66,1,0.9700485406901862,1,1,40,46,1,0,0
10,67,1,1.271313138138794,3,1,49,40,3,1,2
10,68,1,1.368119405797188,2,1,49,28,2,0,1
10,69,1,1.0535698621060874,2,0,62,53,3,2,3
10,70,1,0.922342746220238,3,1,51,40,3,1,2
10,71,1,1.4212178897068952,2,1,47,39,2,0,1
10,72,1,1.1258846021119098,3,1,60,56,3,2,3
10,73,1,0.8777580829755607,3,1,59,48,3,1,2
10,74,1,1.3044106458437454,2,1,47,29,2,0,1
10,75,1,1.3060217284528337,3,1,52,30,3,1,2
10,76,1,1.1888711055416934,3,1,55,41,3,1,2
10,77,1,1.5267741791249136,2,1,52,42,2,0,1
10,78,1,1.1628411987967409,2,1,45,38,2,0,1
10,79,1,0.9274657841215228,2,1,53,36,2,0,1
10,80,1,0.8512571393657709,2,0,52,44,3,2,3
10,1,2,1.5094833715465938,2,0,59,48,3,2,3
10,2,2,1.3474760445315042,0,0,38,30,1,0,0
10,3,2,1.6818074298898864,3,1,54,48,3,1,2
10,4,2,1.9576278446966169,0,0,56,46,2,0,1
10,5,2,2.2208002370189206,3,1,58,34,3,1,2
10,6,2,2.3615119191090344,2,1,46,40,2,0,1
10,7,2,1.487293780573964,3,1,51,43,3,1,2
10,8,2,2.3562356235634065,2,1,55,30,2,0,1
10,9,2,1.4621858090249589,1,1,35,35,1,0,0
10,10,2,1.1854042059494532,1,1,44,39,1,0,0
10,11,2,2.121115524521884,1,1,42,36,1,0,0
10,12,2,2.1446240187160583,2,1,49,38,2,0,1
10,13,2,1.4402498270301294,2,1,54,37,2,0,1
10,14,2,1.337823543446575,2,1,47,35,2,0,1
10,15,2,1.5988885577971814,3,1,53,35,3,1,2
10,16,2,1.0315171448874023,3,1,58,53,3,2,3
10,17,2,2.4481864568715537,0,0,33,29,1,0,0
10,18,2,1.2406749207329997,3,1,52,42,3,1,2
10,19,2,1.3223417904937378,3,1,60,40,3,1,2
10,20,2,1.8248797575997744,1,1,39,41,1,0,0
10,21,2,2.000744443044823,3,1,52,45,3,2,3
10,22,2,2.107060535405253,0,0,56,26,2,0,1
10,23,2,1.386831857245852,3,1,55,38,3,1,2
10,24,2,1.819350877067336,0,0,46,38,1,0,0
10,25,2,2.3358434819583644,2,1,45,34,2,0,1
10,26,2,1.6157243710713374,0,0,32,41,1,0,0
10,27,2,1.4969237538080051,3,1,50,41,3,1,2
10,28,2,1.238143609583858,3,1,56,43,3,1,2
10,29,2,1.0140915115407552,3,1,53,52,3,2,3
10,30,2,2.0399244702639407,0,0,51,33,2,0,1
10,31,2,1.0934516659854123,2,1,50,37,2,0,1
10,32,2,2.220659949953188,1,1,37,32,1,0,0
10,33,2,1.1154914126236688,2,1,53,42,2,0,1
10,34,2,1.3380024009238696,3,1,54,47,3,2,3
10,35,2,1.104040096843164,3,1,51,58,3,2,3
10,36,2,0.9893381829660942,3,1,60,39,3,1,2
10,37,2,1.163247041427894,3,1,64,45,3,1,2
10,38,2,1.30325319221447,3,1,47,48,3,2,3
10,39,2,1.4358063792733446,3,1,56,43,3,2,3
10,40,2,1.661143930092294,3,1,49,55,3,2,3
10,41,2,1.7529343378027988,1,1,41,34,1,0,0
10,42,2,1.3475487480500306,3,1,55,49,3,2,3
10,43,2,0.9593010495573252,3,1,52,37,3,1,2
10,44,2,2.6090977698440843,2,1,52,36,2,0,1
10,45,2,3.540013045672822,1,1,36,39,1,0,0
10,46,2,1.12794453506649,3,1,61,49,3,2,3
10,47,2,1.5219419552886393,3,1,44,51,3,2,3
10,48,2,1.4906415556233696,1,1,40,33,1,0,0
10,49,2,1.5380353735035897,3,1,62,36,3,1,2
10,50,2,2.3221858021988737,1,1,43,44,1,0,0
10,51,2,1.8801798268559649,2,1,48,31,2,0,1
10,52,2,1.0751525664509245,2,1,53,34,2,0,1
10,53,2,1.2660071467889793,3,1,48,60,3,2,3
10,54,2,1.2334875125743563,3,1,54,42,3,1,2
10,55,2,1.3574521274658764,2,0,57,46,3,2,3
10,56,2,1.2202599099509823,3,1,48,40,3,1,2
10,57,2,2.6031842092052098,2,0,55,50,3,2,3
10,58,2,1.197068170980856,2,1,42,40,2,0,1
10,59,2,1.0509207917384629,2,1,40,43,2,0,1
10,60,2,1.1019248682550824,2,1,50,35,2,0,1
10,61,2,1.8722565089283307,3,1,57,50,3,2,3
10,62,2,1.0328476533650246,3,1,50,54,3,2,3
10,63,2,1.7773579405729834,1,1,45,37,1,0,0
10,64,2,1.2471018432897836,1,1,37,28,1,0,0
10,65,2,1.677142116943287,3,1,46,44,3,2,3
10,66,2,1.4569699290732387,2,0,56,52,3,2,3
10,67,2,0.975707127026908,2,1,47,42,2,0,1
10,68,2,1.001419254553184,3,1,49,57,3,2,3
10,69,2,1.813112369258306,3,1,54,44,3,1,2
10,70,2,1.3225650210060849,1,1,38,31,1,0,0
10,71,2,1.3185376558121789,3,1,53,46,3,1,2
10,72,2,1.2655255286608735,3,1,57,39,3,1,2
10,73,2,1.4807398828615987,2,1,44,36,2,0,1
10,74,2,1.2830897424209982,3,1,59,34,3,1,2
10,75,2,1.9450627656624415,2,1,51,38,2,0,1
10,76,2,1.4796633246951387,1,1,50,33,1,0,0
10,77,2,1.0110383051960523,1,1,30,36,1,0,0
10,78,2,1.3671841586892697,3,1,51,47,3,1,2
10,79,2,1.2976905199047906,1,1,40,39,1,0,0
