id,block,trial,set_size,stim,correct_resp,resp,correct,rt
1,0,1,3,0,0,2,0,0.294136589858681
1,0,2,3,1,1,0,0,0.255659920163453
1,0,3,3,2,1,1,1,0.186559292953461
1,0,4,3,0,0,2,0,0.345195503905416
1,0,5,3,2,1,1,1,0.224369043018669
1,0,6,3,1,1,0,0,0.205918951192871
1,0,7,3,1,1,1,1,0.363374387845397
1,0,8,3,2,1,1,1,0.305842651054263
1,0,9,3,0,0,0,1,0.307824944844469
1,0,10,3,0,0,1,0,0.188877846114337
1,0,11,3,1,1,1,1,0.378988114884123
1,0,12,3,2,1,1,1,0.31351084401831
1,0,13,3,0,0,0,1,0.434305011061952
1,0,14,3,2,1,1,1,0.294938110047951
1,0,15,3,1,1,1,1,0.192387223010883
1,0,16,3,1,1,0,0,0.286498516099527
1,0,17,3,2,1,1,1,0.28065778198652
1,0,18,3,0,0,0,1,0.331215603975579
1,0,19,3,2,1,1,1,0.419214991852641
1,0,20,3,1,1,1,1,0.375473550986499
1,0,21,3,0,0,0,1,0.397999926004559
1,0,22,3,0,0,0,1,0.49136746302247
1,0,23,3,2,1,1,1,0.301407617051154
1,0,24,3,1,1,1,1,0.21494847885333
1,0,25,3,1,1,1,1,0.3721284030471
1,0,26,3,2,1,1,1,0.442989545874298
1,0,27,3,0,0,0,1,0.446472201962024
1,0,28,3,2,1,1,1,0.393921139882877
1,0,29,3,0,0,0,1,0.399770230054855
1,0,30,3,1,1,1,1,0.429100872948766
1,0,31,3,1,1,1,1,0.337200362002477
1,0,32,3,2,1,1,1,0.361277350224555
1,0,33,3,1,1,1,1,0.592267658095807
1,0,34,3,0,0,0,1,0.334657466970384
1,0,35,3,2,1,1,1,0.357975516933948
1,0,36,3,0,0,0,1,0.350417697103694
1,0,37,3,0,0,0,1,0.429025667952374
1,0,38,3,1,1,1,1,0.361852566013113
1,0,39,3,2,1,1,1,0.328770143911242
1,1,1,6,0,0,0,1,0.530863563995808
1,1,2,6,1,0,2,0,0.42662280309014
1,1,3,6,2,1,0,0,0.502563290065154
1,1,4,6,3,1,1,1,0.392633956857026
1,1,5,6,4,2,2,1,0.605543148005381
1,1,6,6,5,2,0,0,0.643452258082107
1,1,7,6,1,0,2,0,0.550638151122257
1,1,8,6,5,2,0,0,0.973603650927544
1,1,9,6,4,2,1,0,0.677059819921851
1,1,10,6,2,1,2,0,0.542490609921515
1,1,11,6,0,0,0,1,0.374226479092613
1,1,12,6,3,1,1,1,0.308968344936147
1,1,13,6,3,1,1,1,0.566182980081066
1,1,14,6,0,0,0,1,0.452881332952529
1,1,15,6,4,2,2,1,0.840560670010746
1,1,16,6,1,0,2,0,0.668410264886916
1,1,17,6,5,2,2,1,0.951110325055197
1,1,18,6,2,1,0,0,0.926733304047957
1,1,19,6,0,0,0,1,0.310122738126665
1,1,20,6,1,0,2,0,0.670706006931141
1,1,21,6,2,1,1,1,1.08993379888125
1,1,22,6,3,1,1,1,0.59584477590397
1,1,23,6,4,2,2,1,0.913124933140352
1,1,24,6,5,2,-2,-1,-1
1,1,25,6,0,0,0,1,0.387026194948703
1,1,26,6,3,1,1,1,0.481639395933598
1,1,27,6,1,0,2,0,0.667776159010828
1,1,28,6,4,2,1,0,0.654333851067349
1,1,29,6,2,1,2,0,0.817833288107067
1,1,30,6,5,2,0,0,0.55844514304772
1,1,31,6,4,2,1,0,0.509370423853397
1,1,32,6,5,2,1,0,0.79858484887518
1,1,33,6,0,0,0,1,0.427884079981595
1,1,34,6,2,1,0,0,0.712476164102554
1,1,35,6,3,1,1,1,0.408558890223503
1,1,36,6,1,0,1,0,0.701976802200079
1,1,37,6,1,0,0,1,0.559276443906128
1,1,38,6,2,1,1,1,0.766444724053144
1,1,39,6,5,2,0,0,0.637724250089377
1,1,40,6,4,2,2,1,0.881792444968596
1,1,41,6,4,2,2,1,0.57978938287124
1,1,42,6,5,2,1,0,0.625695465831086
1,1,43,6,0,0,0,1,0.454152688849717
1,1,44,6,2,1,1,1,0.889460345963016
1,1,45,6,3,1,1,1,0.64317831187509
1,1,46,6,2,1,1,1,0.590087034972385
1,1,47,6,0,0,0,1,0.500203932868317
1,1,48,6,1,0,0,1,0.886363785946742
1,1,49,6,1,0,0,1,0.527977793943137
1,1,50,6,3,1,1,1,0.496839411091059
1,1,51,6,4,2,2,1,0.929632185027003
1,1,52,6,3,1,1,1,0.562129674013704
1,1,53,6,5,2,0,0,0.568510107928887
1,1,54,6,0,0,0,1,0.511293241987005
1,1,55,6,3,1,1,1,0.663876244798303
1,1,56,6,2,1,0,0,0.666689730016515
1,1,57,6,1,0,0,1,0.9653980510775
1,1,58,6,4,2,2,1,0.612784192198887
1,1,59,6,0,0,0,1,0.432689066044986
1,1,60,6,1,0,0,1,0.541551526170224
1,1,61,6,5,2,1,0,0.533275634050369
1,1,62,6,2,1,0,0,0.733649326022714
1,1,63,6,5,2,2,1,0.853781148092821
1,1,64,6,3,1,1,1,0.728684738976881
1,1,65,6,4,2,2,1,0.59254920296371
1,1,66,6,4,2,2,1,0.374239454977214
1,1,67,6,5,2,2,1,0.564832553965971
1,1,68,6,0,0,0,1,0.499726278008893
1,1,69,6,3,1,1,1,0.589447539998218
1,1,70,6,0,0,0,1,0.547254353994504
1,1,71,6,1,0,0,1,0.675277667818591
1,1,72,6,2,1,1,1,1.36576074780896
1,1,73,6,0,0,0,1,0.436481788055971
1,1,74,6,4,2,2,1,0.672451527090743
1,1,75,6,3,1,1,1,0.515773148043081
1,1,76,6,2,1,0,0,0.780204332899302
1,1,77,6,2,1,1,1,0.570533975027502
1,1,78,6,5,2,2,1,1.00096801505424
1,2,1,3,0,0,2,0,0.563259839080274
1,2,2,3,1,2,2,1,0.698597850045189
1,2,3,3,2,2,1,0,0.572021441999823
1,2,4,3,0,0,0,1,0.650694035924971
1,2,5,3,2,2,1,0,0.501780521124601
1,2,6,3,1,2,2,1,0.695878165075555
1,2,7,3,1,2,2,1,0.66437100386247006
1,2,8,3,2,2,0,0,0.603111658012494
1,2,9,3,0,0,0,1,0.70506855705753
1,2,10,3,0,0,0,1,0.594081231858581
1,2,11,3,1,2,2,1,0.408402426866814
1,2,12,3,2,2,2,1,0.365726052084938
1,2,13,3,0,0,0,1,0.636428088182583
1,2,14,3,2,2,2,1,0.615945141995326
1,2,15,3,1,2,2,1,0.508914963109419
1,2,16,3,1,2,2,1,0.589811675949022
1,2,17,3,2,2,2,1,0.819866277044639
1,2,18,3,0,0,0,1,0.51301393401809
1,2,19,3,2,2,2,1,0.370030110934749
1,2,20,3,1,2,2,1,0.600046151084825
1,2,21,3,0,0,0,1,0.461725970963016
1,2,22,3,0,0,0,1,0.48106901301071
1,2,23,3,2,2,2,1,0.498567386996001
1,2,24,3,1,2,2,1,0.53259299788624
1,2,25,3,1,2,2,1,0.556421902962029
1,2,26,3,2,2,2,1,0.628202718915418
1,2,27,3,0,0,0,1,0.535800370154902
1,2,28,3,2,2,2,1,0.543840043013915
1,2,29,3,0,0,0,1,0.534922527847812
1,2,30,3,1,2,2,1,0.559345036046579
1,2,31,3,1,2,2,1,0.525354898069054
1,2,32,3,2,2,2,1,0.526404852047563
1,2,33,3,1,2,2,1,0.565936884144321
1,2,34,3,0,0,0,1,0.533154101110995
1,2,35,3,2,2,2,1,0.453274169005454
1,2,36,3,0,0,0,1,0.408566675148904
1,2,37,3,0,0,2,0,0.270332886138931
1,2,38,3,1,2,2,1,0.409065985120833
1,2,39,3,2,2,2,1,0.485562908928841
1,3,1,3,0,1,0,0,0.612997859017923
1,3,2,3,1,1,2,0,0.610000361921266
1,3,3,3,2,0,1,0,0.543006620137021
1,3,4,3,0,1,2,0,0.5034649760928
1,3,5,3,2,0,1,0,0.560883224010468
1,3,6,3,1,1,0,0,0.512369117001072
1,3,7,3,1,1,1,1,0.729230843950063
1,3,8,3,2,0,2,0,0.681282344972715
1,3,9,3,0,1,0,0,0.667413131799549
1,3,10,3,0,1,2,0,0.56628970708698
1,3,11,3,1,1,1,1,0.629082165891305
1,3,12,3,2,0,0,1,0.71292771701701
1,3,13,3,0,1,1,1,0.345957851968706
1,3,14,3,2,0,0,1,0.44863099604845
1,3,15,3,1,1,1,1,0.484417566796765
1,3,16,3,1,1,1,1,0.367188411997631
1,3,17,3,2,0,0,1,0.390050621936098
1,3,18,3,0,1,1,1,0.459852749947459
1,3,19,3,2,0,0,1,0.407120344927534
1,3,20,3,1,1,1,1,0.373154937988147
1,3,21,3,0,1,1,1,0.25208538887091
1,3,22,3,0,1,1,1,0.383225379977375
1,3,23,3,2,0,0,1,0.357651758939028
1,3,24,3,1,1,1,1,0.380642889998853
1,3,25,3,1,1,1,1,0.283189615001902
1,3,26,3,2,0,0,1,0.301651472924277
1,3,27,3,0,1,1,1,0.415070797782391
1,3,28,3,2,0,0,1,0.299803110072389
1,3,29,3,0,1,1,1,0.541181114967912
1,3,30,3,1,1,1,1,0.309473809087649
1,3,31,3,1,1,1,1,0.390539648011327
1,3,32,3,2,0,0,1,0.301367918029428
1,3,33,3,1,1,1,1,0.33487698296085
1,3,34,3,0,1,1,1,0.711326838005334
1,3,35,3,2,0,0,1,0.30405038013123
1,3,36,3,0,1,1,1,0.505936206085607
1,3,37,3,0,1,1,1,0.355315129039809
1,3,38,3,1,1,1,1,0.474345562048256
1,3,39,3,2,0,0,1,0.406057487009093
1,4,1,6,0,1,2,0,0.329979886999354
1,4,2,6,1,1,2,0,0.578221624018624
1,4,3,6,2,2,2,1,0.496981852920726
1,4,4,6,3,2,2,1,0.546262060990557
1,4,5,6,4,0,2,0,0.514224420068786
1,4,6,6,5,0,2,0,0.426636147079989
1,4,7,6,1,1,1,1,0.727854633005336
1,4,8,6,5,0,1,0,0.584347941912711
1,4,9,6,4,0,1,0,0.590371294878423
1,4,10,6,2,2,1,0,0.588321449002251
1,4,11,6,0,1,0,0,0.650798697955906
1,4,12,6,3,2,2,1,0.598196611972526
1,4,13,6,3,2,2,1,0.443512386875227
1,4,14,6,0,1,0,0,0.759448734112084
1,4,15,6,4,0,1,0,0.67054578801617
1,4,16,6,1,1,0,0,0.937702786177397
1,4,17,6,5,0,1,0,0.689727538032457
1,4,18,6,2,2,0,0,0.827784592984244
1,4,19,6,0,1,1,1,1.12057194416411
1,4,20,6,1,1,0,0,1.23303346103057
1,4,21,6,2,2,-2,-1,-1
1,4,22,6,3,2,2,1,0.566461800131947
1,4,23,6,4,0,1,0,0.892431635176763
1,4,24,6,5,0,1,0,0.670908154919744
1,4,25,6,0,1,1,1,0.85725250095129
1,4,26,6,3,2,2,1,0.564794623991475
1,4,27,6,1,1,1,1,0.908027821918949
1,4,28,6,4,0,1,0,0.91673235502094
1,4,29,6,2,2,2,1,0.766217831056565
1,4,30,6,5,0,1,0,1.01298729097471
1,4,31,6,4,0,2,0,0.601264627883211
1,4,32,6,5,0,2,0,0.622668131953105
1,4,33,6,0,1,1,1,0.627532603917643
1,4,34,6,2,2,2,1,1.0081724668853
1,4,35,6,3,2,2,1,0.533049942925572
1,4,36,6,1,1,1,1,1.085866011912
1,4,37,6,1,1,1,1,0.464050595881417
1,4,38,6,2,2,2,1,0.682669597910717
1,4,39,6,5,0,0,1,1.00485295290127
1,4,40,6,4,0,0,1,0.738195063080639
1,4,41,6,4,0,0,1,0.434220239054412
1,4,42,6,5,0,0,1,0.50188367604278
1,4,43,6,0,1,1,1,0.799029748886824
1,4,44,6,2,2,2,1,0.717133556026965
1,4,45,6,3,2,2,1,0.430038712918758
1,4,46,6,2,2,2,1,1.3617685190402
1,4,47,6,0,1,1,1,0.561283974908292
1,4,48,6,1,1,1,1,0.967951686121523
1,4,49,6,1,1,1,1,0.463144266046584
1,4,50,6,3,2,2,1,0.489900313084945
1,4,51,6,4,0,0,1,0.540047792950645
1,4,52,6,3,2,2,1,0.468368441099301
1,4,53,6,5,0,0,1,0.486807888140902
1,4,54,6,0,1,1,1,0.705271655926481
1,4,55,6,3,2,2,1,0.40267422911711
1,4,56,6,2,2,0,0,1.19173775380477
1,4,57,6,1,1,1,1,0.757939125178382
1,4,58,6,4,0,2,0,1.11720300582238
1,4,59,6,0,1,1,1,0.614428757922724
1,4,60,6,1,1,1,1,0.674969776067883
1,4,61,6,5,0,0,1,0.485540485940874
1,4,62,6,2,2,1,0,0.855650149984285
1,4,63,6,5,0,0,1,0.611010152846575
1,4,64,6,3,2,2,1,0.432502686977386
1,4,65,6,4,0,0,1,0.66126561886631
1,4,66,6,4,0,0,1,0.544444165192544
1,4,67,6,5,0,0,1,0.520670410012826
1,4,68,6,0,1,1,1,0.497486829059198
1,4,69,6,3,2,2,1,0.322347745066509
1,4,70,6,0,1,1,1,0.419334251899272
1,4,71,6,1,1,1,1,0.848126990022138
1,4,72,6,2,2,2,1,0.899321708129719
1,4,73,6,0,1,1,1,0.781384517904371
1,4,74,6,4,0,0,1,0.498725953046232
1,4,75,6,3,2,2,1,0.44487351202406
1,4,76,6,2,2,1,0,0.976493997033685
1,4,77,6,2,2,2,1,0.647111742058769
1,4,78,6,5,0,0,1,0.522853091126308
1,5,1,3,0,2,2,1,1.39945773989893
1,5,2,3,1,1,0,0,0.676524766022339
1,5,3,3,2,2,0,0,0.719225906068459
1,5,4,3,0,2,2,1,1.03960017091595
1,5,5,3,2,2,1,0,0.492101463023573
1,5,6,3,1,1,2,0,0.645235182950273
1,5,7,3,1,1,1,1,0.713302319170907
1,5,8,3,2,2,2,1,0.385821520118043
1,5,9,3,0,2,2,1,0.320245919050649
1,5,10,3,0,2,2,1,0.44109186087735
1,5,11,3,1,1,1,1,0.477122968994081
1,5,12,3,2,2,2,1,0.304242342943326
1,5,13,3,0,2,2,1,0.321788533125073
1,5,14,3,2,2,2,1,0.385911382036284
1,5,15,3,1,1,1,1,0.392460668925196
1,5,16,3,1,1,1,1,0.486544162966311
1,5,17,3,2,2,2,1,0.704573119059205
1,5,18,3,0,2,2,1,0.258676833938807
1,5,19,3,2,2,2,1,0.501551341963932
1,5,20,3,1,1,1,1,0.36730840918608
1,5,21,3,0,2,2,1,0.494409216102213
1,5,22,3,0,2,2,1,0.264478855999187
1,5,23,3,2,2,2,1,0.411106474930421
1,5,24,3,1,1,1,1,0.280559854116291
1,5,25,3,1,1,1,1,0.554894058033824
1,5,26,3,2,2,2,1,0.394855555146933
1,5,27,3,0,2,2,1,0.352702393196523
1,5,28,3,2,2,2,1,0.424454110208899
1,5,29,3,0,2,2,1,0.612482470925897
1,5,30,3,1,1,1,1,0.401434018975124
1,5,31,3,1,1,2,0,0.382233108161017
1,5,32,3,2,2,2,1,0.38912314013578
1,5,33,3,1,1,1,1,0.426591105991974
1,5,34,3,0,2,2,1,0.519882975844666
1,5,35,3,2,2,2,1,0.448915463872254
1,5,36,3,0,2,2,1,0.428206417011097
1,5,37,3,0,2,2,1,0.40844958787784
1,5,38,3,1,1,1,1,0.302730577997863
1,5,39,3,2,2,2,1,0.24845599103719
1,6,1,6,0,2,2,1,0.858154200948775
1,6,2,6,1,2,2,1,0.812936076195911
1,6,3,6,2,0,2,0,0.617923917016014
1,6,4,6,3,0,2,0,0.822915812954307
1,6,5,6,4,1,2,0,0.643212940078229
1,6,6,6,5,1,2,0,0.607397047104314
1,6,7,6,1,2,2,1,0.765024608001113
1,6,8,6,5,1,1,1,0.676140386844054
1,6,9,6,4,1,1,1,0.749846435151994
1,6,10,6,2,0,1,0,0.781530921114609
1,6,11,6,0,2,1,0,0.740126376971602
1,6,12,6,3,0,1,0,0.763843334047124
1,6,13,6,3,0,0,1,0.68279590504244
1,6,14,6,0,2,0,0,0.524551062844694
1,6,15,6,4,1,1,1,0.725705146091059
1,6,16,6,1,2,2,1,0.686677085002884
1,6,17,6,5,1,0,0,0.672772258985788
1,6,18,6,2,0,0,1,0.810836029937491
1,6,19,6,0,2,2,1,0.680780712049454
1,6,20,6,1,2,2,1,0.538494371809065
1,6,21,6,2,0,1,0,1.11412315396592
1,6,22,6,3,0,0,1,0.699522506911308
1,6,23,6,4,1,1,1,0.612901528133079
1,6,24,6,5,1,0,0,0.721223313827068
1,6,25,6,0,2,2,1,0.642765705939382
1,6,26,6,3,0,0,1,0.638433790998533
1,6,27,6,1,2,2,1,0.570366689004004
1,6,28,6,4,1,1,1,0.921618273016065
1,6,29,6,2,0,0,1,0.689790725009516
1,6,30,6,5,1,1,1,0.691902128979564
1,6,31,6,4,1,1,1,0.782161667011678
1,6,32,6,5,1,1,1,0.556375464890152
1,6,33,6,0,2,2,1,0.603793988004327
1,6,34,6,2,0,0,1,0.584796535084024
1,6,35,6,3,0,0,1,0.558838213095441
1,6,36,6,1,2,2,1,0.494543283013627
1,6,37,6,1,2,2,1,0.496334034949541
1,6,38,6,2,0,0,1,0.697744013043121
1,6,39,6,5,1,1,1,0.459961231099442
1,6,40,6,4,1,1,1,0.806820038007572
1,6,41,6,4,1,1,1,0.42846878292039
1,6,42,6,5,1,1,1,0.553707144921646
1,6,43,6,0,2,2,1,0.496882335981354
1,6,44,6,2,0,0,1,0.554488487076014
1,6,45,6,3,0,0,1,0.489526865072548
1,6,46,6,2,0,0,1,0.57140701613389
1,6,47,6,0,2,2,1,0.482485397951677
1,6,48,6,1,2,2,1,0.444715942023322
1,6,49,6,1,2,2,1,0.376923974137753
1,6,50,6,3,0,0,1,0.471848414978012
1,6,51,6,4,1,1,1,0.506955858087167
1,6,52,6,3,0,0,1,0.427564695943147
1,6,53,6,5,1,1,1,0.513364328071475
1,6,54,6,0,2,2,1,0.441661054966971
1,6,55,6,3,0,0,1,0.462179336929694
1,6,56,6,2,0,0,1,0.872493166010827
1,6,57,6,1,2,2,1,0.427422437118366
1,6,58,6,4,1,1,1,0.431852779118344
1,6,59,6,0,2,2,1,0.428110521053895
1,6,60,6,1,2,2,1,0.449584599817172
1,6,61,6,5,1,1,1,0.444604858057573
1,6,62,6,2,0,0,1,0.697326835943386
1,6,63,6,5,1,1,1,0.514742633793503
1,6,64,6,3,0,0,1,0.507477163802832
1,6,65,6,4,1,1,1,0.508764351019636
1,6,66,6,4,1,1,1,0.421681387117133
1,6,67,6,5,1,1,1,0.483217220054939
1,6,68,6,0,2,2,1,0.492860984988511
1,6,69,6,3,0,0,1,0.559156354982406
1,6,70,6,0,2,2,1,0.798784621059895
1,6,71,6,1,2,2,1,0.499770069960505
1,6,72,6,2,0,0,1,0.525998743949458
1,6,73,6,0,2,2,1,0.470373225165531
1,6,74,6,4,1,1,1,0.536673652008176
1,6,75,6,3,0,0,1,0.465414982056245
1,6,76,6,2,0,0,1,0.555997611023486
1,6,77,6,2,0,0,1,0.45962329604663
1,6,78,6,5,1,1,1,0.415035022888333
1,7,1,6,0,0,2,0,0.482658811844885
1,7,2,6,1,0,2,0,0.356789460871369
1,7,3,6,2,1,2,0,0.26865416392684
1,7,4,6,3,1,2,0,0.263273597927764
1,7,5,6,4,2,2,1,0.346762507921085
1,7,6,6,5,2,2,1,0.385865250136703
1,7,7,6,1,0,0,1,0.391481325961649
1,7,8,6,5,2,0,0,0.446110642980784
1,7,9,6,4,2,2,1,0.625049054156989
1,7,10,6,2,1,0,0,0.662278241943568
1,7,11,6,0,0,0,1,0.721695164917037
1,7,12,6,3,1,0,0,0.657290356000885
1,7,13,6,3,1,1,1,0.925433019874617
1,7,14,6,0,0,0,1,0.677900884998962
1,7,15,6,4,2,2,1,0.496805351227522
1,7,16,6,1,0,0,1,0.682576399995014
1,7,17,6,5,2,1,0,0.668258034158498
1,7,18,6,2,1,1,1,1.01533226692118
1,7,19,6,0,0,0,1,0.899321834091097
1,7,20,6,1,0,0,1,0.589160674018785
1,7,21,6,2,1,1,1,0.70729944598861
1,7,22,6,3,1,1,1,0.780287794070318
1,7,23,6,4,2,2,1,0.354756143176928
1,7,24,6,5,2,2,1,0.378125710878521
1,7,25,6,0,0,0,1,0.401192045072094
1,7,26,6,3,1,1,1,0.478487971005961
1,7,27,6,1,0,0,1,0.377244364935905
1,7,28,6,4,2,2,1,0.407813391881064
1,7,29,6,2,1,1,1,0.542038648156449
1,7,30,6,5,2,1,0,0.54140134784393
1,7,31,6,4,2,2,1,0.44625021587126
1,7,32,6,5,2,2,1,0.36126498086378
1,7,33,6,0,0,0,1,0.456694938009605
1,7,34,6,2,1,1,1,0.492941161850467
1,7,35,6,3,1,1,1,0.438398534897715
1,7,36,6,1,0,0,1,0.475205441005528
1,7,37,6,1,0,0,1,0.525726272957399
1,7,38,6,2,1,1,1,0.462615555850789
1,7,39,6,5,2,2,1,0.593320576008409
1,7,40,6,4,2,2,1,0.551702535012737
1,7,41,6,4,2,2,1,0.526337848976254
1,7,42,6,5,2,2,1,0.575331907020882
1,7,43,6,0,0,0,1,0.494591760914773
1,7,44,6,2,1,1,1,0.560014610178769
1,7,45,6,3,1,1,1,0.487847028998658
1,7,46,6,2,1,1,1,0.570539287058637
1,7,47,6,0,0,0,1,0.480761614162475
1,7,48,6,1,0,0,1,0.402985251042992
1,7,49,6,1,0,0,1,0.52044869097881
1,7,50,6,3,1,1,1,0.497594460844994
1,7,51,6,4,2,2,1,0.459280334878713
1,7,52,6,3,1,1,1,0.454694657819346
1,7,53,6,5,2,2,1,0.489523443160579
1,7,54,6,0,0,0,1,0.491831888910383
1,7,55,6,3,1,1,1,0.486445142189041
1,7,56,6,2,1,1,1,0.504740852862597
1,7,57,6,1,0,0,1,0.433825796004385
1,7,58,6,4,2,2,1,0.453727707965299
1,7,59,6,0,0,0,1,0.489314520964399
1,7,60,6,1,0,0,1,0.41934537794441
1,7,61,6,5,2,2,1,0.48860879894346
1,7,62,6,2,1,1,1,0.474417385878041
1,7,63,6,5,2,2,1,0.469336659880355
1,7,64,6,3,1,2,0,0.383979105157778
1,7,65,6,4,2,2,1,0.438560283044353
1,7,66,6,4,2,2,1,0.578067505033687
1,7,67,6,5,2,2,1,0.393145931884646
1,7,68,6,0,0,0,1,0.535303897922859
1,7,69,6,3,1,1,1,0.478471066104248
1,7,70,6,0,0,0,1,0.489446237916127
1,7,71,6,1,0,0,1,0.42710581398569
1,7,72,6,2,1,1,1,0.400138642871752
1,7,73,6,0,0,0,1,0.46176289813593
1,7,74,6,4,2,2,1,0.440401053056121
1,7,75,6,3,1,1,1,0.49306450993754
1,7,76,6,2,1,1,1,0.470888396026567
1,7,77,6,2,1,1,1,0.473466272000223
1,7,78,6,5,2,2,1,0.499922130955383
1,8,1,3,0,0,2,0,0.539840884972364
1,8,2,3,1,2,2,1,0.491740036057308
1,8,3,3,2,2,1,0,0.533357823034748
1,8,4,3,0,0,0,1,0.518229205161333
1,8,5,3,2,2,1,0,0.462315568933263
1,8,6,3,1,2,2,1,0.553044575965032
1,8,7,3,1,2,2,1,0.545333774993196
1,8,8,3,2,2,2,1,0.712880099890754
1,8,9,3,0,0,0,1,0.506173130823299
1,8,10,3,0,0,2,0,0.33093545306474
1,8,11,3,1,2,2,1,0.411501223919913
1,8,12,3,2,2,2,1,0.425117964157835
1,8,13,3,0,0,0,1,0.29387871385552
1,8,14,3,2,2,2,1,0.623935722978786
1,8,15,3,1,2,2,1,0.476919195149094
1,8,16,3,1,2,2,1,0.407298285979778
1,8,17,3,2,2,2,1,0.421507674036548
1,8,18,3,0,0,0,1,0.61041029705666
1,8,19,3,2,2,2,1,0.479703861987218
1,8,20,3,1,2,2,1,0.545544506050646
1,8,21,3,0,0,0,1,0.465602305950597
1,8,22,3,0,0,0,1,0.468009827192873
1,8,23,3,2,2,2,1,0.494834055192769
1,8,24,3,1,2,2,1,0.665129424072802
1,8,25,3,1,2,2,1,0.411913915071636
1,8,26,3,2,2,2,1,0.473517307080328
1,8,27,3,0,0,0,1,0.523933458141983
1,8,28,3,2,2,2,1,0.428588284179568
1,8,29,3,0,0,0,1,0.592508455039933
1,8,30,3,1,2,2,1,0.446980849839747
1,8,31,3,1,2,2,1,0.378418793901801
1,8,32,3,2,2,2,1,0.34535724692978
1,8,33,3,1,2,2,1,0.385363112902269
1,8,34,3,0,0,0,1,0.502922588959336
1,8,35,3,2,2,2,1,0.376476997043937
1,8,36,3,0,0,0,1,0.439228232949972
1,8,37,3,0,0,0,1,0.427206878084689
1,8,38,3,1,2,2,1,0.368619214976206
1,8,39,3,2,2,2,1,0.367145361145958
1,9,1,3,0,1,2,0,0.335137906018645
1,9,2,3,1,1,2,0,0.526718262117356
1,9,3,3,2,0,2,0,0.263209041906521
1,9,4,3,0,1,0,0,0.674420108087361
1,9,5,3,2,0,0,1,0.317453460069373
1,9,6,3,1,1,0,0,0.293651076965034
1,9,7,3,1,1,1,1,0.536362584214658
1,9,8,3,2,0,0,1,0.520366423064843
1,9,9,3,0,1,1,1,0.6650373081211
1,9,10,3,0,1,1,1,0.564541998086497
1,9,11,3,1,1,0,0,1.01060359389521
1,9,12,3,2,0,0,1,0.544471603119746
1,9,13,3,0,1,1,1,0.768131421180442
1,9,14,3,2,0,0,1,0.686981786042452
1,9,15,3,1,1,1,1,0.449262319132686
1,9,16,3,1,1,1,1,0.428169737104326
1,9,17,3,2,0,0,1,0.473914450965822
1,9,18,3,0,1,1,1,0.347810806008056
1,9,19,3,2,0,0,1,0.41180583415553
1,9,20,3,1,1,1,1,0.537750415038317
1,9,21,3,0,1,1,1,0.473752968944609
1,9,22,3,0,1,1,1,0.508086869027466
1,9,23,3,2,0,0,1,0.382096375105903
1,9,24,3,1,1,1,1,0.300206460058689
1,9,25,3,1,1,1,1,0.348936720052734
1,9,26,3,2,0,0,1,0.356503616087139
1,9,27,3,0,1,1,1,0.36494821915403
1,9,28,3,2,0,0,1,0.275470030959696
1,9,29,3,0,1,1,1,0.486559737008065
1,9,30,3,1,1,0,0,0.304420687025413
1,9,31,3,1,1,1,1,0.450144197093323
1,9,32,3,2,0,0,1,0.429560668999329
1,9,33,3,1,1,1,1,0.473243232816458
1,9,34,3,0,1,1,1,0.452689222060144
1,9,35,3,2,0,0,1,0.335437091998756
1,9,36,3,0,1,1,1,0.440606857184321
1,9,37,3,0,1,1,1,0.548552840016782
1,9,38,3,1,1,1,1,0.468142824014649
1,9,39,3,2,0,0,1,0.510736983967945
1,10,1,6,0,1,2,0,0.534804882016033
1,10,2,6,1,1,2,0,0.295031103072688
1,10,3,6,2,2,2,1,0.465527781983837
1,10,4,6,3,2,2,1,0.531782844103873
1,10,5,6,4,0,2,0,0.404480166966096
1,10,6,6,5,0,2,0,0.489891821984202
1,10,7,6,1,1,0,0,0.667967366985977
1,10,8,6,5,0,0,1,0.374145590001717
1,10,9,6,4,0,0,1,0.397524506086484
1,10,10,6,2,2,2,1,0.794390550116077
1,10,11,6,0,1,1,1,0.625035450095311
1,10,12,6,3,2,2,1,0.605468134861439
1,10,13,6,3,2,2,1,0.459133433876559
1,10,14,6,0,1,0,0,0.950828200904652
1,10,15,6,4,0,0,1,0.638573391130194
1,10,16,6,1,1,1,1,0.778106193058193
1,10,17,6,5,0,0,1,0.600964668905362
1,10,18,6,2,2,2,1,0.718610022915527
1,10,19,6,0,1,2,0,0.76702113985084
1,10,20,6,1,1,0,0,0.926006328081712
1,10,21,6,2,2,2,1,0.782652900088578
1,10,22,6,3,2,2,1,0.548867715988308
1,10,23,6,4,0,0,1,0.596293639857322
1,10,24,6,5,0,0,1,0.737680908059701
1,10,25,6,0,1,1,1,0.617382300086319
1,10,26,6,3,2,2,1,0.750303996959701
1,10,27,6,1,1,1,1,0.549821775173768
1,10,28,6,4,0,0,1,0.541076849913225
1,10,29,6,2,2,2,1,0.532880279002711
1,10,30,6,5,0,0,1,0.765380907105282
1,10,31,6,4,0,0,1,0.580004371935502
1,10,32,6,5,0,0,1,0.562191020930186
1,10,33,6,0,1,1,1,0.760749297915027
1,10,34,6,2,2,2,1,0.608380459947512
1,10,35,6,3,2,2,1,0.357629894977435
1,10,36,6,1,1,1,1,0.589244318893179
1,10,37,6,1,1,1,1,0.587067784043029
1,10,38,6,2,2,2,1,0.537973592989147
1,10,39,6,5,0,0,1,0.673398226033896
1,10,40,6,4,0,0,1,0.739945620065555
1,10,41,6,4,0,0,1,0.588013153988868
1,10,42,6,5,0,0,1,0.722439670935273
1,10,43,6,0,1,1,1,0.507672521052882
1,10,44,6,2,2,2,1,0.468758490867913
1,10,45,6,3,2,2,1,0.479557119077072
1,10,46,6,2,2,2,1,0.561263505136594
1,10,47,6,0,1,1,1,0.505392552120611
1,10,48,6,1,1,1,1,0.554640399990603
1,10,49,6,1,1,2,0,0.410537188174203
1,10,50,6,3,2,2,1,0.495249686995521
1,10,51,6,4,0,0,1,0.536990338005126
1,10,52,6,3,2,2,1,0.489678606856614
1,10,53,6,5,0,0,1,0.451903100125492
1,10,54,6,0,1,1,1,0.526976683177054
1,10,55,6,3,2,2,1,0.544192523928359
1,10,56,6,2,2,2,1,0.544064377900213
1,10,57,6,1,1,1,1,0.527780871838331
1,10,58,6,4,0,0,1,0.48855279199779
1,10,59,6,0,1,1,1,0.570952809881419
1,10,60,6,1,1,1,1,0.47415382694453
1,10,61,6,5,0,0,1,0.524897990981117
1,10,62,6,2,2,2,1,0.517597869969904
1,10,63,6,5,0,0,1,0.478152167983353
1,10,64,6,3,2,2,1,0.505477759987116
1,10,65,6,4,0,0,1,0.458369300933555
1,10,66,6,4,0,0,1,0.437683579046279
1,10,67,6,5,0,0,1,0.602487455122173
1,10,68,6,0,1,1,1,0.479820054955781
1,10,69,6,3,2,2,1,0.465963918017223
1,10,70,6,0,1,1,1,0.468115814961493
1,10,71,6,1,1,1,1,0.887578218942508
1,10,72,6,2,2,2,1,0.529342754045501
1,10,73,6,0,1,1,1,0.449833885068074
1,10,74,6,4,0,0,1,0.492719996953383
1,10,75,6,3,2,2,1,0.487213375978172
1,10,76,6,2,2,2,1,0.560824890155345
1,10,77,6,2,2,2,1,0.560665916185826
1,10,78,6,5,0,0,1,0.51186821796
1,11,1,3,0,2,2,1,0.990913933841512
1,11,2,3,1,1,2,0,0.45247250283137
1,11,3,3,2,2,2,1,0.248811383033171
1,11,4,3,0,2,2,1,0.628264368046075
1,11,5,3,2,2,0,0,0.385067163966596
1,11,6,3,1,1,0,0,0.407427614089102
1,11,7,3,1,1,2,0,0.396515043918043
1,11,8,3,2,2,2,1,0.522407685872167
1,11,9,3,0,2,2,1,0.506938909878954
1,11,10,3,0,2,1,0,0.292292661964893
1,11,11,3,1,1,1,1,0.774268960114568
1,11,12,3,2,2,2,1,0.949502771953121
1,11,13,3,0,2,2,1,0.38853374007158
1,11,14,3,2,2,2,1,1.26687014009804
1,11,15,3,1,1,1,1,0.556949452962726
1,11,16,3,1,1,1,1,0.444602383999154
1,11,17,3,2,2,2,1,0.280454125022516
1,11,18,3,0,2,2,1,0.579506705049425
1,11,19,3,2,2,1,0,0.745403920998797
1,11,20,3,1,1,1,1,0.568688425933942
1,11,21,3,0,2,2,1,0.543591266032308
1,11,22,3,0,2,2,1,0.391702120192349
1,11,23,3,2,2,2,1,0.430079400073737
1,11,24,3,1,1,1,1,0.801364622078836
1,11,25,3,1,1,1,1,0.49568375502713
1,11,26,3,2,2,2,1,0.488863128004596
1,11,27,3,0,2,2,1,0.435117518994957
1,11,28,3,2,2,2,1,0.446874866029248
1,11,29,3,0,2,2,1,0.418466310948133
1,11,30,3,1,1,1,1,0.599157497985289
1,11,31,3,1,1,1,1,0.92429531016387
1,11,32,3,2,2,2,1,0.525189087959006
1,11,33,3,1,1,1,1,0.566193775972351
1,11,34,3,0,2,2,1,0.397120033157989
1,11,35,3,2,2,2,1,0.482441705884412
1,11,36,3,0,2,2,1,0.42902693990618
1,11,37,3,0,2,2,1,0.608713763998821
1,11,38,3,1,1,1,1,0.374400355154648
1,11,39,3,2,2,2,1,0.485210205893964
1,12,1,6,0,2,2,1,0.448388809105381
1,12,2,6,1,2,1,0,0.476157130906358
1,12,3,6,2,0,2,0,0.510178243974224
1,12,4,6,3,0,0,1,0.58441170793958
1,12,5,6,4,1,0,0,0.870227033039555
1,12,6,6,5,1,0,0,0.753061733907089
1,12,7,6,1,2,2,1,0.592706248164177
1,12,8,6,5,1,1,1,0.71884679188951806
1,12,9,6,4,1,0,0,0.927366625983268
1,12,10,6,2,0,2,0,0.511627763044089
1,12,11,6,0,2,2,1,0.46478492510505
1,12,12,6,3,0,2,0,0.78047447395511
1,12,13,6,3,0,2,0,0.48248986620456
1,12,14,6,0,2,1,0,0.700205445056781
1,12,15,6,4,1,0,0,0.686104214983061
1,12,16,6,1,2,2,1,0.62405364215374
1,12,17,6,5,1,2,0,0.396516917971894
1,12,18,6,2,0,2,0,0.618004149058834
1,12,19,6,0,2,0,0,0.591200027847663
1,12,20,6,1,2,2,1,0.476505854167044
1,12,21,6,2,0,0,1,1.02326500695199
1,12,22,6,3,0,1,0,0.852276555029675
1,12,23,6,4,1,0,0,1.152050859062
1,12,24,6,5,1,2,0,0.44683200889267
1,12,25,6,0,2,2,1,0.666817180113867
1,12,26,6,3,0,1,0,0.917095772922039
1,12,27,6,1,2,2,1,0.565408059861511
1,12,28,6,4,1,-2,-1,-1
1,12,29,6,2,0,0,1,0.629520088899881
1,12,30,6,5,1,2,0,0.530332755995914
1,12,31,6,4,1,2,0,0.962179597001523
1,12,32,6,5,1,2,0,0.488792236894369
1,12,33,6,0,2,2,1,0.843147593084723
1,12,34,6,2,0,0,1,0.583269638009369
1,12,35,6,3,0,0,1,0.837388769956306
1,12,36,6,1,2,2,1,0.553146325051785
1,12,37,6,1,2,2,1,0.489047028124332
1,12,38,6,2,0,0,1,0.738617019029334
1,12,39,6,5,1,1,1,0.619093819987029
1,12,40,6,4,1,1,1,0.759104043943807
1,12,41,6,4,1,1,1,0.502524380106479
1,12,42,6,5,1,2,0,0.408826562808827
1,12,43,6,0,2,2,1,0.830295108957216
1,12,44,6,2,0,0,1,0.609826413216069
1,12,45,6,3,0,1,0,1.08711418602616
1,12,46,6,2,0,0,1,0.465472988085821
1,12,47,6,0,2,2,1,0.739859658060595
1,12,48,6,1,2,2,1,0.412545652827248
1,12,49,6,1,2,2,1,0.464691854082048
1,12,50,6,3,0,0,1,1.07577532110736
1,12,51,6,4,1,1,1,0.566943207988515
1,12,52,6,3,0,0,1,1.02112289215438
1,12,53,6,5,1,2,0,0.474351189099252
1,12,54,6,0,2,2,1,0.556299421004951
1,12,55,6,3,0,0,1,0.579857684904709
1,12,56,6,2,0,0,1,0.42668058606796
1,12,57,6,1,2,2,1,0.895280249882489
1,12,58,6,4,1,1,1,0.872536568902433
1,12,59,6,0,2,2,1,0.723000691039488
1,12,60,6,1,2,2,1,0.499918935121968
1,12,61,6,5,1,1,1,0.669473442947492
1,12,62,6,2,0,0,1,0.672102492069826
1,12,63,6,5,1,1,1,0.603357604006305
1,12,64,6,3,0,0,1,1.0803838968277
1,12,65,6,4,1,1,1,0.578269751975313
1,12,66,6,4,1,0,0,1.08921273704618
1,12,67,6,5,1,1,1,1.26686120801605
1,12,68,6,0,2,2,1,0.581161333946511
1,12,69,6,3,0,0,1,0.73943666415289
1,12,70,6,0,2,2,1,0.61963570700027
1,12,71,6,1,2,2,1,0.496938940137625
1,12,72,6,2,0,0,1,0.585862217936665
1,12,73,6,0,2,2,1,1.25620873691514
1,12,74,6,4,1,1,1,0.547616442898288
1,12,75,6,3,0,0,1,0.794833425898105
1,12,76,6,2,0,0,1,0.665106984088197
1,12,77,6,2,0,0,1,0.539762018015608
1,12,78,6,5,1,1,1,0.56411362090148
1,13,1,3,0,1,2,0,0.928775827866048
1,13,2,3,1,0,2,0,0.424920974997804
1,13,3,3,2,0,2,0,0.454256371129304
1,13,4,3,0,1,0,0,0.769897900987417
1,13,5,3,2,0,0,1,0.360525459051132
1,13,6,3,1,0,0,1,0.423736274940893
1,13,7,3,1,0,0,1,0.44477451290004
1,13,8,3,2,0,0,1,0.633179652970284
1,13,9,3,0,1,1,1,0.860840362031013
1,13,10,3,0,1,1,1,0.552752183983102
1,13,11,3,1,0,0,1,0.543818573001772
1,13,12,3,2,0,0,1,0.383538109017536
1,13,13,3,0,1,1,1,0.622043759096414
1,13,14,3,2,0,0,1,0.402940900065005
1,13,15,3,1,0,0,1,0.432960274862126
1,13,16,3,1,0,0,1,0.428596714977175
1,13,17,3,2,0,0,1,0.608918779995292
1,13,18,3,0,1,1,1,0.446441892068833
1,13,19,3,2,0,0,1,0.369906499050558
1,13,20,3,1,0,0,1,0.369008578825742
1,13,21,3,0,1,1,1,0.463668428128585
1,13,22,3,0,1,1,1,0.538115912117064
1,13,23,3,2,0,0,1,0.450367712182924
1,13,24,3,1,0,0,1,0.566285483073443
1,13,25,3,1,0,0,1,0.356144380988553
1,13,26,3,2,0,0,1,0.452502260915935
1,13,27,3,0,1,1,1,0.383848958881572
1,13,28,3,2,0,0,1,0.430209135869518
1,13,29,3,0,1,1,1,0.369995299028233
1,13,30,3,1,0,0,1,0.441222666064277
1,13,31,3,1,0,0,1,0.413212724030018
1,13,32,3,2,0,0,1,0.393380017951131
1,13,33,3,1,0,0,1,0.351778818992898
1,13,34,3,0,1,1,1,0.447469524107873
1,13,35,3,2,0,0,1,0.435082487063482
1,13,36,3,0,1,1,1,0.543358702911064
1,13,37,3,0,1,1,1,0.566968698985875
1,13,38,3,1,0,0,1,0.294540726114064
1,13,39,3,2,0,0,1,0.408150262897834
2,0,1,3,0,0,1,0,0.615772563964128
2,0,2,3,1,1,0,0,0.49250356014818
2,0,3,3,2,1,0,0,0.238109687808901
2,0,4,3,2,1,0,0,0.226517782080919
2,0,5,3,1,1,1,1,0.174086439190432
2,0,6,3,0,0,0,1,0.189367935992777
2,0,7,3,1,1,1,1,0.195178439840674
2,0,8,3,2,1,1,1,0.384600292891264
2,0,9,3,0,0,0,1,0.270748716080561
2,0,10,3,0,0,2,0,0.330341589869931
2,0,11,3,1,1,1,1,0.314132111845538
2,0,12,3,2,1,0,0,0.331056100083515
2,0,13,3,1,1,0,0,0.451313203200698
2,0,14,3,0,0,0,1,0.343433830887079
2,0,15,3,2,1,1,1,0.286315137986094
2,0,16,3,2,1,2,0,0.360931992996484
2,0,17,3,0,0,0,1,0.487686605891213
2,0,18,3,1,1,2,0,0.433697915868834
2,0,19,3,1,1,2,0,0.518052167026326
2,0,20,3,2,1,1,1,0.254994470160455
2,0,21,3,0,0,0,1,0.321094803977758
2,0,22,3,2,1,1,1,0.282679625088349
2,0,23,3,0,0,0,1,0.340905163902789
2,0,24,3,1,1,1,1,0.276812354102731
2,0,25,3,1,1,0,0,0.231123046018183
2,0,26,3,0,0,0,1,0.29158646101132
2,0,27,3,2,1,1,1,0.316671915818006
2,0,28,3,2,1,1,1,0.309407316148281
2,0,29,3,0,0,0,1,0.302773708011955
2,0,30,3,1,1,0,0,0.392524932976812
2,0,31,3,0,0,0,1,0.341875970130786
2,0,32,3,2,1,1,1,0.269719900097698
2,0,33,3,1,1,0,0,0.41674407501705
2,0,34,3,1,1,1,1,0.341471951920539
2,0,35,3,0,0,0,1,0.269018583931029
2,0,36,3,1,1,1,1,0.167221246054396
2,0,37,3,2,1,1,1,0.277862014016137
2,0,38,3,2,1,0,0,0.304197557969019
2,0,39,3,0,0,0,1,0.297438330948353
2,1,1,6,0,0,2,0,0.381740039912984
2,1,2,6,1,0,1,0,0.243791439104825
2,1,3,6,2,1,1,1,0.231355273863301
2,1,4,6,3,1,1,1,0.395686422940344
2,1,5,6,4,2,1,0,0.177379030967131
2,1,6,6,5,2,1,0,0.176005320856348
2,1,7,6,5,2,1,0,0.30182374897413
2,1,8,6,0,0,1,0,0.359417290892452
2,1,9,6,3,1,1,1,0.42205779091455
2,1,10,6,1,0,2,0,0.411070609930903
2,1,11,6,4,2,2,1,0.399571941932663
2,1,12,6,2,1,1,1,0.301611657021567
2,1,13,6,1,0,0,1,0.303065330954269
2,1,14,6,2,1,1,1,0.320100797107443
2,1,15,6,4,2,1,0,0.289435037877411
2,1,16,6,3,1,1,1,0.275176180992275
2,1,17,6,5,2,0,0,0.365483206929639
2,1,18,6,0,0,2,0,0.412033925997093
2,1,19,6,0,0,1,0,0.200933482963592
2,1,20,6,1,0,1,0,0.294541260926053
2,1,21,6,2,1,2,0,0.327679852023721
2,1,22,6,3,1,0,0,0.29635533108376
2,1,23,6,4,2,1,0,0.201875050086528
2,1,24,6,5,2,1,0,0.199007211020216
2,1,25,6,3,1,1,1,0.244986237958074
2,1,26,6,5,2,0,0,0.328262978000566
2,1,27,6,4,2,1,0,0.297094726935029
2,1,28,6,0,0,2,0,0.274388002930209
2,1,29,6,2,1,1,1,0.301527344156057
2,1,30,6,1,0,2,0,0.366599973989651
2,1,31,6,5,2,1,0,0.349418814992532
2,1,32,6,3,1,2,0,0.325216175056994
2,1,33,6,4,2,1,0,0.453492796979845
2,1,34,6,2,1,1,1,0.296479681041092
2,1,35,6,0,0,0,1,0.370718996040523
2,1,36,6,1,0,2,0,0.37710949103348
2,1,37,6,1,0,0,1,0.543695379048586
2,1,38,6,0,0,0,1,0.350674391025677
2,1,39,6,5,2,0,0,0.398547590943053
2,1,40,6,5,2,2,1,0.355570456944406
2,1,41,6,3,1,1,1,0.523733998881653
2,1,42,6,2,1,1,1,0.404457051074132
2,1,43,6,4,2,0,0,0.57762144994922
2,1,44,6,2,1,1,1,0.383681298000738
2,1,45,6,3,1,2,0,0.437802918953821
2,1,46,6,1,0,0,1,0.40968885505572
2,1,47,6,4,2,0,0,0.575123272137716
2,1,48,6,0,0,0,1,0.469340527895838
2,1,49,6,4,2,0,0,0.495414489880204
2,1,50,6,2,1,1,1,0.385246442863718
2,1,51,6,5,2,2,1,0.743289477890357
2,1,52,6,3,1,1,1,0.575068121077493
2,1,53,6,0,0,0,1,0.581562857842073
2,1,54,6,0,0,0,1,0.571430314099416
2,1,55,6,3,1,2,0,0.562437935965136
2,1,56,6,1,0,0,1,0.505690249148756
2,1,57,6,5,2,0,0,0.619292612886056
2,1,58,6,4,2,1,0,0.391462308121845
2,1,59,6,1,0,1,0,0.397186409914866
2,1,60,6,1,0,2,0,0.475060102995485
2,1,61,6,2,1,0,0,0.308744580019265
2,1,62,6,5,2,1,0,0.398231378989294
2,1,63,6,3,1,2,0,0.45947092003189
2,1,64,6,4,2,0,0,0.478349109180272
2,1,65,6,0,0,0,1,1.08884323807433
2,1,66,6,4,2,1,0,1.04250843706541
2,1,67,6,1,0,0,1,0.886440292000771
2,1,68,6,2,1,1,1,0.47214016597718
2,1,69,6,0,0,0,1,0.546446905005723
2,1,70,6,2,1,1,1,0.474338339874521
2,1,71,6,3,1,1,1,0.47723865811713
2,1,72,6,5,2,0,0,0.855374514823779
2,1,73,6,5,2,2,1,0.443108241073787
2,1,74,6,2,1,1,1,0.430334989912808
2,1,75,6,4,2,2,1,0.578126819105819
2,1,76,6,3,1,1,1,0.488108375109732
2,1,77,6,2,1,1,1,0.514632898848504
2,1,78,6,1,0,2,0,0.643918507965282
2,2,1,3,0,0,1,0,0.557174077024683
2,2,2,3,1,2,1,0,0.476391813950613
2,2,3,3,2,2,1,0,0.446498535806313
2,2,4,3,2,2,2,1,0.370625206036493
2,2,5,3,1,2,0,0,0.425144291017205
2,2,6,3,0,0,2,0,0.589018556056544
2,2,7,3,1,2,2,1,0.395782091887668
2,2,8,3,2,2,2,1,0.489262839080766
2,2,9,3,0,0,0,1,0.427413326920941
2,2,10,3,0,0,0,1,0.447058028075844
2,2,11,3,1,2,2,1,0.531413701828569
2,2,12,3,2,2,2,1,0.603049763944
2,2,13,3,1,2,2,1,0.416356177069247
2,2,14,3,0,0,0,1,0.461666755843908
2,2,15,3,2,2,2,1,0.384470399934798
2,2,16,3,2,2,2,1,0.374614652013406
2,2,17,3,0,0,0,1,0.357162974076346
2,2,18,3,1,2,2,1,0.341013093944639
2,2,19,3,1,2,2,1,0.549293983029202
2,2,20,3,2,2,2,1,0.388502307934687
2,2,21,3,0,0,0,1,0.322445594007149
2,2,22,3,2,2,2,1,0.394894041121006
2,2,23,3,0,0,0,1,0.319761132122949
2,2,24,3,1,2,2,1,0.401399353053421
2,2,25,3,1,2,2,1,0.375041919061914
2,2,26,3,0,0,0,1,0.404693024000153
2,2,27,3,2,2,2,1,0.426491884049028
2,2,28,3,2,2,2,1,0.398321584099904
2,2,29,3,0,0,0,1,0.307989441091195
2,2,30,3,1,2,2,1,0.397311127977446
2,2,31,3,0,0,0,1,0.473913492867723
2,2,32,3,2,2,2,1,0.380490092094988
2,2,33,3,1,2,2,1,0.362332158954814
2,2,34,3,1,2,2,1,0.377705228980631
2,2,35,3,0,0,0,1,0.384676304878667
2,2,36,3,1,2,2,1,0.398623707005754
2,2,37,3,2,2,2,1,0.444337539141998
2,2,38,3,2,2,2,1,0.472517075017095
2,2,39,3,0,0,0,1,0.403558266814798
2,3,1,3,0,1,2,0,0.489761099219322
2,3,2,3,1,1,2,0,0.515718813054264
2,3,3,3,2,0,2,0,0.404106881935149
2,3,4,3,2,0,1,0,0.313697007019073
2,3,5,3,1,1,1,1,0.226490956963971
2,3,6,3,0,1,1,1,0.287314316025004
2,3,7,3,1,1,0,0,0.338436373975128
2,3,8,3,2,0,0,1,0.537910411134362
2,3,9,3,0,1,1,1,0.538405624916777
2,3,10,3,0,1,1,1,0.362769294995815
2,3,11,3,1,1,1,1,0.369705680990592
2,3,12,3,2,0,0,1,0.320530866971239
2,3,13,3,1,1,1,1,0.54487185110338
2,3,14,3,0,1,1,1,0.361337462905794
2,3,15,3,2,0,0,1,0.272943620104343
2,3,16,3,2,0,0,1,0.36388917081058
2,3,17,3,0,1,1,1,0.290593414800242
2,3,18,3,1,1,1,1,0.38844394008629
2,3,19,3,1,1,1,1,0.522798968944699
2,3,20,3,2,0,0,1,0.347420935984701
2,3,21,3,0,1,1,1,0.299540522042662
2,3,22,3,2,0,0,1,0.285114974947646
2,3,23,3,0,1,1,1,0.278990526916459
2,3,24,3,1,1,1,1,0.345484053017572
2,3,25,3,1,1,1,1,0.34502585302107
2,3,26,3,0,1,1,1,0.473470737924799
2,3,27,3,2,0,0,1,0.284803890157491
2,3,28,3,2,0,0,1,0.318383106961846
2,3,29,3,0,1,1,1,0.311611420009285
2,3,30,3,1,1,1,1,0.328879739157856
2,3,31,3,0,1,1,1,0.337695847963914
2,3,32,3,2,0,0,1,0.385404302040115
2,3,33,3,1,1,1,1,0.319644750095904
2,3,34,3,1,1,1,1,0.312312169931829
2,3,35,3,0,1,1,1,0.337215733947232
2,3,36,3,1,1,1,1,0.47390128695406
2,3,37,3,2,0,1,0,0.308688789140433
2,3,38,3,2,0,0,1,0.334114484954625
2,3,39,3,0,1,1,1,0.357969908975065
2,4,1,6,0,1,2,0,0.29407873400487
2,4,2,6,1,1,2,0,0.248607865069062
2,4,3,6,2,2,2,1,0.27575613791123
2,4,4,6,3,2,1,0,0.534410659922287
2,4,5,6,4,0,1,0,0.383178303018212
2,4,6,6,5,0,1,0,0.261268678819761
2,4,7,6,5,0,0,1,0.704640639014542
2,4,8,6,0,1,0,0,1.28228154801764
2,4,9,6,3,2,1,0,0.427265407983214
2,4,10,6,1,1,0,0,0.320261506130919
2,4,11,6,4,0,0,1,0.288968706037849
2,4,12,6,2,2,2,1,0.803830771008506
2,4,13,6,1,1,1,1,0.384596962016076
2,4,14,6,2,2,2,1,0.847396133001894
2,4,15,6,4,0,2,0,1.06619271007366
2,4,16,6,3,2,1,0,1.46942193899304
2,4,17,6,5,0,0,1,1.45601550512947
2,4,18,6,0,1,2,0,1.38649776298553
2,4,19,6,0,1,1,1,1.38473016791977
2,4,20,6,1,1,1,1,0.934829368023202
2,4,21,6,2,2,2,1,0.798547406913713
2,4,22,6,3,2,2,1,0.859966760966927
2,4,23,6,4,0,2,0,1.08710576291196
2,4,24,6,5,0,-2,-1,-1
2,4,25,6,3,2,1,0,0.634820754174143
2,4,26,6,5,0,2,0,0.654387734830379
2,4,27,6,4,0,0,1,1.18544116709381
2,4,28,6,0,1,0,0,1.19999187299982
2,4,29,6,2,2,2,1,0.533464062958956
2,4,30,6,1,1,1,1,0.909499984933063
2,4,31,6,5,0,2,0,1.07073719007894
2,4,32,6,3,2,0,0,1.12113747396506
2,4,33,6,4,0,0,1,0.697550477925688
2,4,34,6,2,2,2,1,0.46754727512598
2,4,35,6,0,1,2,0,0.982223530067131
2,4,36,6,1,1,1,1,0.531550869112834
2,4,37,6,1,1,1,1,0.3798212420661
2,4,38,6,0,1,1,1,0.585900135105476
2,4,39,6,5,0,0,1,0.968881532084197
2,4,40,6,5,0,0,1,0.455132105853409
2,4,41,6,3,2,0,0,0.738314088899642
2,4,42,6,2,2,2,1,0.546543072909117
2,4,43,6,4,0,0,1,0.58563883183524
2,4,44,6,2,2,2,1,0.551701175048947
2,4,45,6,3,2,1,0,0.511707693105564
2,4,46,6,1,1,0,0,0.593172857072204
2,4,47,6,4,0,0,1,0.671333229867741
2,4,48,6,0,1,2,0,0.594113119179383
2,4,49,6,4,0,0,1,0.631732050795108
2,4,50,6,2,2,2,1,0.492147599812597
2,4,51,6,5,0,1,0,0.622360920999199
2,4,52,6,3,2,-2,-1,-1
2,4,53,6,0,1,1,1,0.556355393026024
2,4,54,6,0,1,1,1,0.444050746969879
2,4,55,6,3,2,1,0,0.608213016064838
2,4,56,6,1,1,0,0,0.58949681208469
2,4,57,6,5,0,0,1,0.715940576046705
2,4,58,6,4,0,0,1,0.636453103972599
2,4,59,6,1,1,1,1,0.32825979590416
2,4,60,6,1,1,1,1,0.345357865095139
2,4,61,6,2,2,2,1,0.449547152966261
2,4,62,6,5,0,2,0,0.493054638849571
2,4,63,6,3,2,1,0,0.630955148022622
2,4,64,6,4,0,0,1,0.483164064120501
2,4,65,6,0,1,1,1,0.493676895974204
2,4,66,6,4,0,0,1,0.479203802999109
2,4,67,6,1,1,1,1,0.41802851902321
2,4,68,6,2,2,2,1,0.454234212869778
2,4,69,6,0,1,1,1,0.490030220011249
2,4,70,6,2,2,2,1,0.612210561987013
2,4,71,6,3,2,0,0,0.40086514595896
2,4,72,6,5,0,1,0,0.541985585121438
2,4,73,6,5,0,0,1,0.525988765060902
2,4,74,6,2,2,2,1,0.463343814946711
2,4,75,6,4,0,0,1,0.554319458082318
2,4,76,6,3,2,2,1,0.345777507172897
2,4,77,6,2,2,2,1,0.656892604194582
2,4,78,6,1,1,1,1,0.420205110916868
2,5,1,3,0,2,2,1,0.308799596969038
2,5,2,3,1,1,0,0,0.390278171049431
2,5,3,3,2,2,2,1,0.341206772020087
2,5,4,3,2,2,2,1,0.621081657009199
2,5,5,3,1,1,1,1,1.27399290190078
2,5,6,3,0,2,2,1,0.732026563957334
2,5,7,3,1,1,1,1,0.444521483033895
2,5,8,3,2,2,2,1,0.369146422017366
2,5,9,3,0,2,2,1,0.823677350999787
2,5,10,3,0,2,2,1,0.331774940015748
2,5,11,3,1,1,1,1,0.340617452049628
2,5,12,3,2,2,2,1,0.404462487902492
2,5,13,3,1,1,1,1,0.33801184897311
2,5,14,3,0,2,2,1,0.394164734985679
2,5,15,3,2,2,2,1,0.408495586132631
2,5,16,3,2,2,2,1,0.318072464084253
2,5,17,3,0,2,2,1,0.343243760056794
2,5,18,3,1,1,1,1,0.295498870080337
2,5,19,3,1,1,2,0,0.264894842868671
2,5,20,3,2,2,2,1,0.308682119939476
2,5,21,3,0,2,2,1,0.37366604921408
2,5,22,3,2,2,2,1,0.356783049879596
2,5,23,3,0,2,2,1,0.372201167978346
2,5,24,3,1,1,1,1,0.354662606026977
2,5,25,3,1,1,1,1,0.354398907860741
2,5,26,3,0,2,2,1,0.314474651124328
2,5,27,3,2,2,2,1,0.346919642062858
2,5,28,3,2,2,2,1,0.402493261033669
2,5,29,3,0,2,2,1,0.368580970913172
2,5,30,3,1,1,1,1,0.334991538897157
2,5,31,3,0,2,2,1,0.311453686095774
2,5,32,3,2,2,2,1,0.409108710009605
2,5,33,3,1,1,1,1,0.326362212887034
2,5,34,3,1,1,1,1,0.366940478095785
2,5,35,3,0,2,2,1,0.326170813990757
2,5,36,3,1,1,1,1,0.342580876080319
2,5,37,3,2,2,2,1,0.246475117979571
2,5,38,3,2,2,2,1,0.322756495093927
2,5,39,3,0,2,2,1,0.387063315836713
2,6,1,6,0,2,2,1,0.271921067032963
2,6,2,6,1,2,1,0,0.371273355092853
2,6,3,6,2,0,2,0,0.265528212068602
2,6,4,6,3,0,2,0,0.292719599092379
2,6,5,6,4,1,2,0,0.454249278875068
2,6,6,6,5,1,2,0,0.441785262199119
2,6,7,6,5,1,2,0,0.518589647952467
2,6,8,6,0,2,2,1,0.583539243089035
2,6,9,6,3,0,1,0,0.277065769070759
2,6,10,6,1,2,1,0,0.224449964007363
2,6,11,6,4,1,1,1,0.228910760954022
2,6,12,6,2,0,1,0,1.06580920005217
2,6,13,6,1,2,1,0,0.483616700861603
2,6,14,6,2,0,1,0,0.950292132096365
2,6,15,6,4,1,0,0,0.509458740008995
2,6,16,6,3,0,0,1,0.239065187051892
2,6,17,6,5,1,1,1,0.875579967861995
2,6,18,6,0,2,2,1,0.74220779305324
2,6,19,6,0,2,2,1,0.453641316853464
2,6,20,6,1,2,0,0,0.601048896089196
2,6,21,6,2,0,0,1,0.847307589137927
2,6,22,6,3,0,0,1,1.17825964186341
2,6,23,6,4,1,0,0,0.768877581926063
2,6,24,6,5,1,2,0,0.847395575139672
2,6,25,6,3,0,1,0,0.859130322933197
2,6,26,6,5,1,1,1,1.13375226291828
2,6,27,6,4,1,0,0,1.01461485493928
2,6,28,6,0,2,2,1,0.482921179849654
2,6,29,6,2,0,0,1,0.620937177911401
2,6,30,6,1,2,1,0,0.76968069607392
2,6,31,6,5,1,0,0,1.08878424484283
2,6,32,6,3,0,1,0,0.578239507973194
2,6,33,6,4,1,1,1,0.72957821493037
2,6,34,6,2,0,0,1,0.585492664016783
2,6,35,6,0,2,2,1,0.631537731969729
2,6,36,6,1,2,1,0,0.691474030958489
2,6,37,6,1,2,2,1,0.405925183091313
2,6,38,6,0,2,2,1,0.515237898100168
2,6,39,6,5,1,0,0,0.572339680977166
2,6,40,6,5,1,1,1,0.354506860021502
2,6,41,6,3,0,0,1,0.778649061918259
2,6,42,6,2,0,0,1,0.641062938142568
2,6,43,6,4,1,1,1,0.676530243828893
2,6,44,6,2,0,0,1,0.504108809866011
2,6,45,6,3,0,0,1,0.625012340955436
2,6,46,6,1,2,0,0,1.34224619809538
2,6,47,6,4,1,2,0,1.3737100479193
2,6,48,6,0,2,2,1,0.460329924942926
2,6,49,6,4,1,0,0,0.391858318122104
2,6,50,6,2,0,0,1,0.429615697823465
2,6,51,6,5,1,1,1,0.522393006132916
2,6,52,6,3,0,0,1,0.611251469003037
2,6,53,6,0,2,0,0,0.448522618971765
2,6,54,6,0,2,2,1,0.427888263948262
2,6,55,6,3,0,0,1,0.76077274302952
2,6,56,6,1,2,1,0,0.584200989920646
2,6,57,6,5,1,1,1,0.702751676086336
2,6,58,6,4,1,1,1,0.551460972987115
2,6,59,6,1,2,1,0,0.502901901956648
2,6,60,6,1,2,2,1,0.400470986030996
2,6,61,6,2,0,0,1,0.542574476916343
2,6,62,6,5,1,1,1,0.637935299891979
2,6,63,6,3,0,0,1,0.578591122990474
2,6,64,6,4,1,1,1,0.617229480063543
2,6,65,6,0,2,2,1,0.65407682582736
2,6,66,6,4,1,2,0,0.729322453960776
2,6,67,6,1,2,2,1,0.657348161097616
2,6,68,6,2,0,1,0,0.564902303973213
2,6,69,6,0,2,2,1,0.507701592985541
2,6,70,6,2,0,0,1,0.597066425019875
2,6,71,6,3,0,1,0,0.554172018077224
2,6,72,6,5,1,1,1,0.577645143028349
2,6,73,6,5,1,1,1,0.416865498991683
2,6,74,6,2,0,1,0,0.518091459060088
2,6,75,6,4,1,2,0,0.638429144164547
2,6,76,6,3,0,1,0,0.466957302996889
2,6,77,6,2,0,0,1,0.708991091931239
2,6,78,6,1,2,1,0,0.991230755113065
2,7,1,6,0,0,2,0,0.342916306108236
2,7,2,6,1,0,2,0,0.398928784998134
2,7,3,6,2,1,2,0,0.492275517899543
2,7,4,6,3,1,2,0,0.294430081034079
2,7,5,6,4,2,0,0,0.632978285895661
2,7,6,6,5,2,2,1,0.53272340609692
2,7,7,6,5,2,2,1,0.589094737078995
2,7,8,6,0,0,1,0,0.403271546121687
2,7,9,6,3,1,1,1,0.400749512948096
2,7,10,6,1,0,1,0,0.597840619040653
2,7,11,6,4,2,1,0,0.451796299079433
2,7,12,6,2,1,1,1,0.591073638992384
2,7,13,6,1,0,-2,-1,-1
2,7,14,6,2,1,1,1,0.838048548204824
2,7,15,6,4,2,0,0,0.634651500033215
2,7,16,6,3,1,0,0,0.470201160991564
2,7,17,6,5,2,2,1,0.577667910140008
2,7,18,6,0,0,0,1,0.663634871132672
2,7,19,6,0,0,0,1,0.394543153000996
2,7,20,6,1,0,0,1,0.528898885007948
2,7,21,6,2,1,1,1,0.497617694083601
2,7,22,6,3,1,1,1,0.826209449907765
2,7,23,6,4,2,1,0,0.495064220158383
2,7,24,6,5,2,2,1,0.56182790803723
2,7,25,6,3,1,0,0,0.568897958146408
2,7,26,6,5,2,0,0,0.751271037152037
2,7,27,6,4,2,1,0,0.598748947959393
2,7,28,6,0,0,1,0,0.91688062204048
2,7,29,6,2,1,0,0,0.477250049822032
2,7,30,6,1,0,0,1,0.896086840890348
2,7,31,6,5,2,2,1,0.481387566076592
2,7,32,6,3,1,1,1,0.355886064004153
2,7,33,6,4,2,1,0,0.371090268949047
2,7,34,6,2,1,1,1,0.450265775900334
2,7,35,6,0,0,0,1,0.541546266991645
2,7,36,6,1,0,0,1,0.461181389866397
2,7,37,6,1,0,0,1,0.497433277079836
2,7,38,6,0,0,0,1,0.394273275043815
2,7,39,6,5,2,2,1,0.489111614180729
2,7,40,6,5,2,2,1,0.371463379124179
2,7,41,6,3,1,1,1,0.623650118010119
2,7,42,6,2,1,1,1,0.436698772013187
2,7,43,6,4,2,2,1,0.344184561166912
2,7,44,6,2,1,1,1,0.632784090004861
2,7,45,6,3,1,1,1,0.724452177062631
2,7,46,6,1,0,0,1,0.774060921976343
2,7,47,6,4,2,1,0,0.556337863905355
2,7,48,6,0,0,0,1,0.555962288053706
2,7,49,6,4,2,2,1,0.371476922184229
2,7,50,6,2,1,1,1,0.554563364945352
2,7,51,6,5,2,2,1,0.353739702142775
2,7,52,6,3,1,0,0,0.840704792179167
2,7,53,6,0,0,0,1,0.581154632847756
2,7,54,6,0,0,0,1,0.475425669923425
2,7,55,6,3,1,1,1,0.390213357051834
2,7,56,6,1,0,0,1,0.724772752029821
2,7,57,6,5,2,2,1,0.517396242823452
2,7,58,6,4,2,2,1,1.13395123882219
2,7,59,6,1,0,0,1,0.661717709852383
2,7,60,6,1,0,0,1,0.576677885139361
2,7,61,6,2,1,1,1,0.511185831855983
2,7,62,6,5,2,2,1,0.54441568790935
2,7,63,6,3,1,1,1,0.457329237135127
2,7,64,6,4,2,2,1,0.620088809169829
2,7,65,6,0,0,0,1,0.521068857982755
2,7,66,6,4,2,2,1,0.482143945991993
2,7,67,6,1,0,0,1,0.523891509044915
2,7,68,6,2,1,1,1,0.429115505889058
2,7,69,6,0,0,0,1,0.633426890941337
2,7,70,6,2,1,1,1,0.85284825717099
2,7,71,6,3,1,1,1,0.425030108075589
2,7,72,6,5,2,2,1,0.517124564154074
2,7,73,6,5,2,2,1,0.533786908956245
2,7,74,6,2,1,1,1,0.694156372919679
2,7,75,6,4,2,2,1,0.336690863128752
2,7,76,6,3,1,1,1,0.384539417922497
2,7,77,6,2,1,1,1,0.462970416992903
2,7,78,6,1,0,0,1,0.569474790012464
2,8,1,3,0,0,2,0,0.347496879054233
2,8,2,3,1,2,2,1,0.379125141073018
2,8,3,3,2,2,2,1,0.416825996944681
2,8,4,3,2,2,2,1,0.486257043899968
2,8,5,3,1,2,2,1,0.368142025079578
2,8,6,3,0,0,1,0,0.343270295998082
2,8,7,3,1,2,2,1,0.599113520001993
2,8,8,3,2,2,2,1,0.412516539916396
2,8,9,3,0,0,0,1,0.361738495994359
2,8,10,3,0,0,0,1,0.897202735999599
2,8,11,3,1,2,2,1,0.465797852026299
2,8,12,3,2,2,2,1,0.461075750179589
2,8,13,3,1,2,2,1,0.352148591075093
2,8,14,3,0,0,0,1,0.327698143897578
2,8,15,3,2,2,2,1,0.417048683157191
2,8,16,3,2,2,2,1,0.390133580891415
2,8,17,3,0,0,0,1,0.667743216035888
2,8,18,3,1,2,2,1,0.471165694994852
2,8,19,3,1,2,2,1,0.434012238867581
2,8,20,3,2,2,2,1,0.382225257111713
2,8,21,3,0,0,0,1,0.523674209136516
2,8,22,3,2,2,2,1,0.356680928030983
2,8,23,3,0,0,0,1,0.659851314965636
2,8,24,3,1,2,2,1,0.487518816022202
2,8,25,3,1,2,2,1,0.401994876097888
2,8,26,3,0,0,0,1,0.399329350097105
2,8,27,3,2,2,2,1,0.500440952833742
2,8,28,3,2,2,2,1,0.49446706706658
2,8,29,3,0,0,0,1,0.336504465900362
2,8,30,3,1,2,2,1,0.504301914013922
2,8,31,3,0,0,0,1,0.514198601944372
2,8,32,3,2,2,2,1,0.507339374162257
2,8,33,3,1,2,2,1,0.372603798983619
2,8,34,3,1,2,2,1,0.395068402169272
2,8,35,3,0,0,0,1,0.345296047860757
2,8,36,3,1,2,2,1,0.433093550149351
2,8,37,3,2,2,2,1,0.34941934607923
2,8,38,3,2,2,2,1,0.38116109999828
2,8,39,3,0,0,0,1,0.371024972992018
2,9,1,3,0,1,2,0,0.493968178052455
2,9,2,3,1,1,2,0,0.36056862398982
2,9,3,3,2,0,2,0,0.416050983127207
2,9,4,3,2,0,1,0,0.356192542938516
2,9,5,3,1,1,1,1,0.268597137881443
2,9,6,3,0,1,1,1,0.318716273875907
2,9,7,3,1,1,0,0,0.263951600994915
2,9,8,3,2,0,0,1,0.507085374090821
2,9,9,3,0,1,1,1,0.763839079067111
2,9,10,3,0,1,1,1,0.466528951888904
2,9,11,3,1,1,1,1,0.526098715141416
2,9,12,3,2,0,0,1,0.358675019117072
2,9,13,3,1,1,1,1,0.334012387087569
2,9,14,3,0,1,1,1,0.382377701113001
2,9,15,3,2,0,0,1,0.50817675399594
2,9,16,3,2,0,0,1,0.437643862096593
2,9,17,3,0,1,1,1,0.354404537007213
2,9,18,3,1,1,1,1,0.345853651873767
2,9,19,3,1,1,1,1,0.369208398973569
2,9,20,3,2,0,1,0,0.368195933988318
2,9,21,3,0,1,1,1,0.311012920923531
2,9,22,3,2,0,0,1,0.512246333062649
2,9,23,3,0,1,1,1,0.385604111943394
2,9,24,3,1,1,0,0,0.391402184031904
2,9,25,3,1,1,1,1,0.365892176982015
2,9,26,3,0,1,1,1,0.412742777960375
2,9,27,3,2,0,0,1,0.313608472933993
2,9,28,3,2,0,0,1,0.50643831002526
2,9,29,3,0,1,1,1,0.307991364970803
2,9,30,3,1,1,1,1,0.372959386091679
2,9,31,3,0,1,1,1,0.396213733125478
2,9,32,3,2,0,0,1,0.369899942073971
2,9,33,3,1,1,1,1,0.264714239863679
2,9,34,3,1,1,1,1,0.323741165921092
2,9,35,3,0,1,1,1,0.412554970942438
2,9,36,3,1,1,1,1,0.369069093139842
2,9,37,3,2,0,0,1,0.391835066024214
2,9,38,3,2,0,0,1,0.613817272940651
2,9,39,3,0,1,1,1,0.39491388015449
2,10,1,6,0,1,2,0,0.263472945895046
2,10,2,6,1,1,2,0,0.321981777902693
2,10,3,6,2,2,2,1,0.331055321032181
2,10,4,6,3,2,2,1,0.683498518075794
2,10,5,6,4,0,1,0,0.549473174847662
2,10,6,6,5,0,1,0,0.556277425028384
2,10,7,6,5,0,1,0,0.444474627031013
2,10,8,6,0,1,1,1,0.367805771995336
2,10,9,6,3,2,1,0,1.01510197110474
2,10,10,6,1,1,-2,-1,-1
2,10,11,6,4,0,0,1,0.628621239913628
2,10,12,6,2,2,0,0,0.561852921964601
2,10,13,6,1,1,0,0,0.729282521177083
2,10,14,6,2,2,2,1,0.681311425985768
2,10,15,6,4,0,0,1,0.635713065043092
2,10,16,6,3,2,2,1,0.647645292105153
2,10,17,6,5,0,0,1,0.834786367835477
2,10,18,6,0,1,1,1,0.70315007888712
2,10,19,6,0,1,1,1,0.440160294063389
2,10,20,6,1,1,0,0,0.891951795900241
2,10,21,6,2,2,0,0,0.966788072139025
2,10,22,6,3,2,2,1,0.605267829960212
2,10,23,6,4,0,0,1,0.658116748090833
2,10,24,6,5,0,0,1,0.693655943963677
2,10,25,6,3,2,1,0,0.583571108058095
2,10,26,6,5,0,0,1,0.750492384890094
2,10,27,6,4,0,0,1,0.621564948931336
2,10,28,6,0,1,1,1,0.594676133012399
2,10,29,6,2,2,2,1,0.504631096031517
2,10,30,6,1,1,1,1,0.498358510201797
2,10,31,6,5,0,0,1,0.715453191893175
2,10,32,6,3,2,2,1,0.643737751990557
2,10,33,6,4,0,0,1,0.671762058977038
2,10,34,6,2,2,2,1,0.571343949995935
2,10,35,6,0,1,1,1,0.570009853923693
2,10,36,6,1,1,1,1,0.896960689919069
2,10,37,6,1,1,1,1,0.457698576152325
2,10,38,6,0,1,0,0,0.477378718089312
2,10,39,6,5,0,0,1,0.576806603930891
2,10,40,6,5,0,0,1,0.759395140921697
2,10,41,6,3,2,2,1,0.542859425069764
2,10,42,6,2,2,2,1,0.478921924019232
2,10,43,6,4,0,0,1,0.873077381867915
2,10,44,6,2,2,0,0,0.827013834845275
2,10,45,6,3,2,2,1,0.43973166984506
2,10,46,6,1,1,0,0,0.772546260850504
2,10,47,6,4,0,0,1,0.602933437097818
2,10,48,6,0,1,1,1,0.504431091016158
2,10,49,6,4,0,0,1,0.745483259204775
2,10,50,6,2,2,2,1,0.58538496401161
2,10,51,6,5,0,0,1,0.711741888895631
2,10,52,6,3,2,2,1,0.592098569963127
2,10,53,6,0,1,1,1,0.590346673037857
2,10,54,6,0,1,1,1,0.516537050018087
2,10,55,6,3,2,2,1,0.516947570024058
2,10,56,6,1,1,1,1,0.55835747695528
2,10,57,6,5,0,0,1,0.533912752056494
2,10,58,6,4,0,0,1,0.445844574831426
2,10,59,6,1,1,1,1,0.792819769820198
2,10,60,6,1,1,1,1,0.487551600905135
2,10,61,6,2,2,2,1,0.585683878976852
2,10,62,6,5,0,0,1,1.02314671385102
2,10,63,6,3,2,2,1,0.524101947899908
2,10,64,6,4,0,0,1,0.637071850942448
2,10,65,6,0,1,1,1,0.496708360034972
2,10,66,6,4,0,0,1,0.562615202972665
2,10,67,6,1,1,1,1,0.625058128032833
2,10,68,6,2,2,2,1,0.510379526996985
2,10,69,6,0,1,1,1,0.487492677057162
2,10,70,6,2,2,0,0,0.561986777931452
2,10,71,6,3,2,2,1,0.521205216879025
2,10,72,6,5,0,0,1,0.602011681068689
2,10,73,6,5,0,0,1,0.567744489992037
2,10,74,6,2,2,2,1,0.47052581096068
2,10,75,6,4,0,0,1,0.504482195945457
2,10,76,6,3,2,2,1,0.514473062939942
2,10,77,6,2,2,0,0,0.61128455796279
2,10,78,6,1,1,1,1,0.544915799982846
2,11,1,3,0,2,2,1,0.437336571048945
2,11,2,3,1,1,2,0,0.521238174056634
2,11,3,3,2,2,2,1,0.338252697139978
2,11,4,3,2,2,2,1,0.545853602001444
2,11,5,3,1,1,2,0,0.385751626919955
2,11,6,3,0,2,2,1,0.359712128061801
2,11,7,3,1,1,2,0,0.511363518191501
2,11,8,3,2,2,2,1,0.528951389947906
2,11,9,3,0,2,2,1,0.409209417877719
2,11,10,3,0,2,1,0,0.222415528958663
2,11,11,3,1,1,1,1,0.339860005071387
2,11,12,3,2,2,2,1,0.371706693898886
2,11,13,3,1,1,1,1,0.410549995023757
2,11,14,3,0,2,2,1,0.35969800199382
2,11,15,3,2,2,2,1,0.400041789049283
2,11,16,3,2,2,2,1,0.325180456973612
2,11,17,3,0,2,2,1,0.550390519201756
2,11,18,3,1,1,1,1,0.292961897095665
2,11,19,3,1,1,1,1,0.367988965008408
2,11,20,3,2,2,2,1,0.3902418599464
2,11,21,3,0,2,2,1,0.356577928876504
2,11,22,3,2,2,2,1,0.332048712065443
2,11,23,3,0,2,2,1,0.412661358015612
2,11,24,3,1,1,1,1,0.344969485187903
2,11,25,3,1,1,1,1,0.369372971123084
2,11,26,3,0,2,2,1,0.351910285884514
2,11,27,3,2,2,2,1,0.327918543945998
2,11,28,3,2,2,2,1,0.360231359023601
2,11,29,3,0,2,2,1,0.295913591049612
2,11,30,3,1,1,1,1,0.281843408942223
2,11,31,3,0,2,2,1,0.395493243122473
2,11,32,3,2,2,2,1,0.337384373182431
2,11,33,3,1,1,1,1,0.313652168028057
2,11,34,3,1,1,1,1,0.314292760100216
2,11,35,3,0,2,2,1,0.323527721920982
2,11,36,3,1,1,1,1,0.284436785150319
2,11,37,3,2,2,2,1,0.278866183012724
2,11,38,3,2,2,2,1,0.369031216949224
2,11,39,3,0,2,2,1,0.303315258119255
2,12,1,6,0,2,2,1,0.352896634954959
2,12,2,6,1,2,2,1,0.344352097017691
2,12,3,6,2,0,1,0,0.376867094775662
2,12,4,6,3,0,1,0,0.343902115011588
2,12,5,6,4,1,1,1,0.488334955880418
2,12,6,6,5,1,1,1,0.586045439122245
2,12,7,6,5,1,1,1,0.416062778094783
2,12,8,6,0,2,2,1,0.773196452995762
2,12,9,6,3,0,0,1,0.683981921989471
2,12,10,6,1,2,1,0,1.10970858717337
2,12,11,6,4,1,1,1,0.687409455189481
2,12,12,6,2,0,0,1,0.585315076867118
2,12,13,6,1,2,1,0,0.710714518092573
2,12,14,6,2,0,0,1,0.768479379126802
2,12,15,6,4,1,1,1,0.423637466039509
2,12,16,6,3,0,0,1,0.580649530049413
2,12,17,6,5,1,1,1,1.25059350999072
2,12,18,6,0,2,2,1,0.677796580828726
2,12,19,6,0,2,2,1,0.4480666059535
2,12,20,6,1,2,2,1,0.379864504095167
2,12,21,6,2,0,0,1,0.530237707076594
2,12,22,6,3,0,1,0,1.04192112898454
2,12,23,6,4,1,1,1,0.526367282029241
2,12,24,6,5,1,1,1,0.358714028960094
2,12,25,6,3,0,0,1,0.486682703951374
2,12,26,6,5,1,1,1,0.752480219118297
2,12,27,6,4,1,1,1,0.639592118095607
2,12,28,6,0,2,2,1,0.515523141017184
2,12,29,6,2,0,0,1,0.588810110930353
2,12,30,6,1,2,1,0,0.563337656902149
2,12,31,6,5,1,0,0,0.729646117892116
2,12,32,6,3,0,2,0,0.913565761176869
2,12,33,6,4,1,1,1,0.570898505859077
2,12,34,6,2,0,0,1,0.553010174073279
2,12,35,6,0,2,2,1,0.561200622934848
2,12,36,6,1,2,2,1,0.70458473986946
2,12,37,6,1,2,2,1,0.449556294130161
2,12,38,6,0,2,2,1,0.844954536063597
2,12,39,6,5,1,1,1,0.761274926830083
2,12,40,6,5,1,1,1,0.624554415000603
2,12,41,6,3,0,0,1,0.73289773799479
2,12,42,6,2,0,0,1,0.797070857835934
2,12,43,6,4,1,1,1,0.627128401072696
2,12,44,6,2,0,0,1,0.736152235884219
2,12,45,6,3,0,1,0,1.41548250312917
2,12,46,6,1,2,1,0,0.756420742021874
2,12,47,6,4,1,1,1,0.595334332901984
2,12,48,6,0,2,2,1,0.888518247986212
2,12,49,6,4,1,1,1,0.603117935126647
2,12,50,6,2,0,0,1,0.552179163089022
2,12,51,6,5,1,1,1,0.567566819023341
2,12,52,6,3,0,1,0,0.862109964946285
2,12,53,6,0,2,2,1,0.594264934072271
2,12,54,6,0,2,2,1,0.503989470889792
2,12,55,6,3,0,0,1,0.6419124789536
2,12,56,6,1,2,2,1,0.645934669999406
2,12,57,6,5,1,1,1,0.977014156058431
2,12,58,6,4,1,1,1,0.471704445080832
2,12,59,6,1,2,2,1,0.762391448020935
2,12,60,6,1,2,2,1,0.425271009095013
2,12,61,6,2,0,0,1,0.53434940893203
2,12,62,6,5,1,1,1,0.494117192924023
2,12,63,6,3,0,0,1,0.632013498805463
2,12,64,6,4,1,1,1,0.532584543805569
2,12,65,6,0,2,2,1,0.564429095946252
2,12,66,6,4,1,1,1,0.539635194931179
2,12,67,6,1,2,2,1,1.25936170504428
2,12,68,6,2,0,0,1,0.486615134170279
2,12,69,6,0,2,2,1,0.577317134942859
2,12,70,6,2,0,0,1,0.54406772996299
2,12,71,6,3,0,1,0,0.847987338202074
2,12,72,6,5,1,2,0,0.778926180908456
2,12,73,6,5,1,1,1,0.425921258050948
2,12,74,6,2,0,0,1,0.526530114002526
2,12,75,6,4,1,1,1,0.655892350943759
2,12,76,6,3,0,0,1,0.435028987005353
2,12,77,6,2,0,0,1,0.486851044930518
2,12,78,6,1,2,2,1,0.497602951945737
2,13,1,3,0,1,2,0,0.41435258788988
2,13,2,3,1,0,2,0,0.314816710073501
2,13,3,3,2,0,2,0,0.267968682106584
2,13,4,3,2,0,2,0,0.254376393044367
2,13,5,3,1,0,1,0,0.746549837989733
2,13,6,3,0,1,0,0,0.60954261617735
2,13,7,3,1,0,1,0,0.638663556892425
2,13,8,3,2,0,0,1,0.65072307898663
2,13,9,3,0,1,1,1,0.478494656039402
2,13,10,3,0,1,1,1,0.465351769933477
2,13,11,3,1,0,2,0,0.724470657063648
2,13,12,3,2,0,1,0,0.676932713016868
2,13,13,3,1,0,0,1,0.679219424026087
2,13,14,3,0,1,1,1,0.473354466026649
2,13,15,3,2,0,0,1,0.548016957007349
2,13,16,3,2,0,0,1,0.580161946127191
2,13,17,3,0,1,1,1,0.553618615027517
2,13,18,3,1,0,0,1,0.649739221902564
2,13,19,3,1,0,0,1,0.805164234014228
2,13,20,3,2,0,0,1,0.530465006129816
2,13,21,3,0,1,1,1,0.386311814887449
2,13,22,3,2,0,0,1,0.472197498194873
2,13,23,3,0,1,1,1,0.371884507825598
2,13,24,3,1,0,0,1,0.850593043956906
2,13,25,3,1,0,1,0,0.6615894890856
2,13,26,3,0,1,1,1,0.49739202298224
2,13,27,3,2,0,0,1,0.482482274994254
2,13,28,3,2,0,0,1,0.365231034811586
2,13,29,3,0,1,1,1,0.379115502117202
2,13,30,3,1,0,0,1,0.505634303204715
2,13,31,3,0,1,1,1,0.522908241022378
2,13,32,3,2,0,0,1,0.372221210971475
2,13,33,3,1,0,0,1,0.42694915109314
2,13,34,3,1,0,0,1,0.614919200073928
2,13,35,3,0,1,1,1,0.675668436102569
2,13,36,3,1,0,0,1,0.382411649916321
2,13,37,3,2,0,0,1,0.372959146043286
2,13,38,3,2,0,0,1,0.364110209047794
2,13,39,3,0,1,1,1,0.36255604820326
3,0,1,3,0,0,0,1,0.448397654108703
3,0,2,3,1,1,2,0,0.771761659998447
3,0,3,3,2,1,1,1,0.626811843831092
3,0,4,3,0,0,0,1,0.591339881066233
3,0,5,3,2,1,1,1,0.596787077840418
3,0,6,3,1,1,1,1,0.753306144848466
3,0,7,3,1,1,1,1,0.609629922080785
3,0,8,3,2,1,1,1,0.677453763084486
3,0,9,3,0,0,0,1,0.448010908905417
3,0,10,3,0,0,0,1,0.411400409881026
3,0,11,3,1,1,1,1,0.600357644958422
3,0,12,3,2,1,1,1,0.509900375967845
3,0,13,3,0,0,0,1,0.51897367881611
3,0,14,3,2,1,1,1,0.551033755997196
3,0,15,3,1,1,1,1,1.07084454107098
3,0,16,3,1,1,1,1,0.377835337072611
3,0,17,3,2,1,1,1,0.351592192193493
3,0,18,3,0,0,0,1,0.45556529215537
3,0,19,3,0,0,0,1,0.594311255961657
3,0,20,3,1,1,1,1,0.392226686002687
3,0,21,3,0,0,0,1,0.422039338154718
3,0,22,3,2,1,1,1,0.378689209930599
3,0,23,3,2,1,1,1,0.38559705298394
3,0,24,3,1,1,1,1,0.383548487210646
3,0,25,3,2,1,1,1,0.350103916833177
3,0,26,3,0,0,0,1,0.43769627599977
3,0,27,3,1,1,1,1,0.34597954293713
3,0,28,3,0,0,0,1,0.417145844083279
3,0,29,3,2,1,1,1,0.621884922031313
3,0,30,3,1,1,1,1,0.378290962893516
3,0,31,3,1,1,1,1,0.376989451004192
3,0,32,3,0,0,0,1,0.471331991953775
3,0,33,3,2,1,1,1,0.497879127971828
3,0,34,3,2,1,1,1,0.587164119118825
3,0,35,3,0,0,0,1,0.513337810989469
3,0,36,3,1,1,1,1,0.402276112930849
3,0,37,3,0,0,0,1,0.512101745931432
3,0,38,3,1,1,1,1,0.512648201081902
3,0,39,3,2,1,1,1,0.409221891080961
3,1,1,6,0,0,0,1,0.411998364841565
3,1,2,6,1,0,2,0,0.48837625910528
3,1,3,6,2,1,0,0,0.690949624171481
3,1,4,6,3,1,1,1,0.653014994924888
3,1,5,6,4,2,2,1,1.42405692813918
3,1,6,6,5,2,1,0,0.628605747129768
3,1,7,6,3,1,1,1,0.792970841052011
3,1,8,6,5,2,2,1,0.878788713132963
3,1,9,6,1,0,0,1,1.06424250989221
3,1,10,6,4,2,2,1,1.30711188004352
3,1,11,6,0,0,0,1,0.748723529046401
3,1,12,6,2,1,1,1,0.979793683858588
3,1,13,6,2,1,1,1,0.513856056146324
3,1,14,6,5,2,2,1,0.762442806968465
3,1,15,6,3,1,0,0,0.801246378105134
3,1,16,6,0,0,0,1,0.614407720975578
3,1,17,6,1,0,2,0,1.01965038408525
3,1,18,6,5,2,1,0,0.896522185998037
3,1,19,6,0,0,0,1,1.16181908012368
3,1,20,6,1,0,1,0,1.36859196494333
3,1,21,6,2,1,-2,-1,-1
3,1,22,6,3,1,2,0,0.919792099157348
3,1,23,6,4,2,1,0,0.728555729147047
3,1,24,6,5,2,1,0,0.792481448035687
3,1,25,6,0,0,0,1,0.567079201107845
3,1,26,6,5,2,2,1,0.885172406909987
3,1,27,6,4,2,2,1,0.639552435837686
3,1,28,6,2,1,2,0,0.707349069183692
3,1,29,6,1,0,1,0,0.91645169002004
3,1,30,6,3,1,2,0,0.973954365123063
3,1,31,6,5,2,0,0,0.652655615005642
3,1,32,6,1,0,2,0,0.895294660003856
3,1,33,6,0,0,0,1,0.600972496904433
3,1,34,6,4,2,2,1,0.990314244059846
3,1,35,6,3,1,1,1,0.532737941015512
3,1,36,6,3,1,1,1,0.460638052783906
3,1,37,6,2,1,1,1,0.51157421595417
3,1,38,6,2,1,1,1,0.368151615839452
3,1,39,6,0,0,0,1,0.582613304024562
3,1,40,6,4,2,2,1,0.621378346113488
3,1,41,6,5,2,2,1,0.553831871133298
3,1,42,6,1,0,1,0,0.361943047959358
3,1,43,6,4,2,2,1,0.56058534514159
3,1,44,6,1,0,1,0,0.463165192864835
3,1,45,6,5,2,2,1,0.658106265123934
3,1,46,6,3,1,1,1,0.893541111145169
3,1,47,6,0,0,0,1,0.519005144014955
3,1,48,6,5,2,2,1,1.1274828328751
3,1,49,6,2,1,1,1,0.703706746920943
3,1,50,6,4,2,2,1,0.800562024116516
3,1,51,6,3,1,2,0,0.766580704133958
3,1,52,6,3,1,1,1,0.644764488795772
3,1,53,6,2,1,1,1,0.520492546027526
3,1,54,6,1,0,0,1,0.761392262065783
3,1,55,6,5,2,2,1,0.688321802997962
3,1,56,6,0,0,0,1,0.553489422891289
3,1,57,6,2,1,1,1,0.64921754412353
3,1,58,6,0,0,2,0,1.00515588396229
3,1,59,6,1,0,0,1,1.0981609269511
3,1,60,6,1,0,0,1,0.547549992799759
3,1,61,6,4,2,2,1,0.539322894066572
3,1,62,6,4,2,2,1,0.483449773164466
3,1,63,6,3,1,1,1,0.821316753979772
3,1,64,6,5,2,2,1,1.02552527189255
3,1,65,6,4,2,2,1,0.622799670090899
3,1,66,6,0,0,0,1,0.523253894178197
3,1,67,6,2,1,1,1,0.700175937032327
3,1,68,6,0,0,0,1,0.597293202998117
3,1,69,6,3,1,1,1,0.618720766156912
3,1,70,6,2,1,2,0,1.10409508203156
3,1,71,6,1,0,0,1,1.12073039985262
3,1,72,6,5,2,2,1,0.657147743972018
3,1,73,6,0,0,0,1,0.46940076793544
3,1,74,6,5,2,2,1,0.663737314986065
3,1,75,6,3,1,0,0,1.03464068588801
3,1,76,6,4,2,2,1,0.702599714975804
3,1,77,6,2,1,1,1,0.743974284036085
3,1,78,6,5,2,2,1,0.927569920895621
3,2,1,3,0,0,0,1,0.352226946037263
3,2,2,3,1,2,1,0,0.566935567185283
3,2,3,3,2,2,1,0,0.750463577918708
3,2,4,3,0,0,0,1,0.581298524048179
3,2,5,3,2,2,2,1,0.61971972300671
3,2,6,3,1,2,2,1,0.84074453311041
3,2,7,3,1,2,2,1,0.516976905986667
3,2,8,3,2,2,2,1,0.444912526989356
3,2,9,3,0,0,0,1,0.424663435900584
3,2,10,3,0,0,0,1,0.4374839970842
3,2,11,3,1,2,2,1,0.393812405876815
3,2,12,3,2,2,2,1,0.487374249147251
3,2,13,3,0,0,0,1,0.393919763155282
3,2,14,3,2,2,2,1,0.447281346889213
3,2,15,3,1,2,2,1,0.490547484951094
3,2,16,3,1,2,2,1,0.444515994982794
3,2,17,3,2,2,2,1,0.544499931158498
3,2,18,3,0,0,0,1,0.303212206112221
3,2,19,3,0,0,0,1,0.360465639038011
3,2,20,3,1,2,2,1,0.439153793035075
3,2,21,3,0,0,0,1,0.387768973130733
3,2,22,3,2,2,2,1,0.889661444118246
3,2,23,3,2,2,2,1,0.44408248597756
3,2,24,3,1,2,2,1,0.431627060985193
3,2,25,3,2,2,2,1,0.41171458712779
3,2,26,3,0,0,0,1,0.415802590781823
3,2,27,3,1,2,2,1,0.420780486892909
3,2,28,3,0,0,0,1,0.457874632207677
3,2,29,3,2,2,2,1,0.453780013136566
3,2,30,3,1,2,2,1,0.424508559983224
3,2,31,3,1,2,2,1,0.541262540966272
3,2,32,3,0,0,2,0,0.333324064966291
3,2,33,3,2,2,2,1,0.437815668061376
3,2,34,3,2,2,2,1,0.457711979979649
3,2,35,3,0,0,0,1,0.41189738502726
3,2,36,3,1,2,2,1,0.369245500070974
3,2,37,3,0,0,2,0,0.351562710944563
3,2,38,3,1,2,2,1,0.415651611983776
3,2,39,3,2,2,2,1,0.412503596860915
3,3,1,3,0,1,0,0,0.243091417942196
3,3,2,3,1,1,0,0,0.366776142967865
3,3,3,3,2,0,0,1,0.237510013859719
3,3,4,3,0,1,2,0,0.489842345006764
3,3,5,3,2,0,0,1,0.652083077933639
3,3,6,3,1,1,2,0,0.599338165018708
3,3,7,3,1,1,1,1,0.604530995013192
3,3,8,3,2,0,0,1,0.569800595054403
3,3,9,3,0,1,1,1,0.368917322950438
3,3,10,3,0,1,1,1,0.368226296966895
3,3,11,3,1,1,1,1,0.35852820193395
3,3,12,3,2,0,0,1,0.373108973959461
3,3,13,3,0,1,1,1,0.772797514917329
3,3,14,3,2,0,0,1,0.379074292024598
3,3,15,3,1,1,1,1,0.601687425049022
3,3,16,3,1,1,1,1,0.310676051070914
3,3,17,3,2,0,0,1,0.448229580884799
3,3,18,3,0,1,1,1,0.316211279947311
3,3,19,3,0,1,1,1,0.460537818958983
3,3,20,3,1,1,1,1,0.376518168952316
3,3,21,3,0,1,1,1,0.407434072112665
3,3,22,3,2,0,0,1,0.42046571103856
3,3,23,3,2,0,0,1,0.40151567501016
3,3,24,3,1,1,1,1,0.583107223035768
3,3,25,3,2,0,0,1,0.508990935981274
3,3,26,3,0,1,1,1,0.358226358890533
3,3,27,3,1,1,1,1,0.390231311088428
3,3,28,3,0,1,1,1,0.459975988138467
3,3,29,3,2,0,0,1,0.615728681907058
3,3,30,3,1,1,1,1,0.460030242102221
3,3,31,3,1,1,1,1,0.432067276909947
3,3,32,3,0,1,1,1,0.356262292945758
3,3,33,3,2,0,0,1,0.548021813156083
3,3,34,3,2,0,1,0,0.443075480870903
3,3,35,3,0,1,1,1,0.391339045017958
3,3,36,3,1,1,1,1,0.348941504023969
3,3,37,3,0,1,1,1,0.500930932816118
3,3,38,3,1,1,1,1,0.390457759844139
3,3,39,3,2,0,0,1,0.397091313032433
3,4,1,6,0,1,0,0,0.305645612068474
3,4,2,6,1,1,2,0,0.571692341007292
3,4,3,6,2,2,1,0,0.362333916826174
3,4,4,6,3,2,0,0,0.321138666011393
3,4,5,6,4,0,0,1,0.330121653852984
3,4,6,6,5,0,0,1,0.49829265777953
3,4,7,6,3,2,0,0,0.563685279106721
3,4,8,6,5,0,0,1,0.874382212059572
3,4,9,6,1,1,1,1,0.836806847946718
3,4,10,6,4,0,0,1,0.664852915098891
3,4,11,6,0,1,2,0,0.563453765120357
3,4,12,6,2,2,1,0,0.883100590901449
3,4,13,6,2,2,2,1,0.660682187881321
3,4,14,6,5,0,2,0,1.20822661393322
3,4,15,6,3,2,0,0,0.621414205990732
3,4,16,6,0,1,1,1,0.889928832883015
3,4,17,6,1,1,1,1,0.811997968005016
3,4,18,6,5,0,0,1,0.617050186963752
3,4,19,6,0,1,2,0,0.806597524089739
3,4,20,6,1,1,1,1,0.684000869980082
3,4,21,6,2,2,2,1,0.917915859958157
3,4,22,6,3,2,0,0,0.934485776117072
3,4,23,6,4,0,0,1,0.646190779050812
3,4,24,6,5,0,0,1,0.625914579955861
3,4,25,6,0,1,1,1,0.63071700790897
3,4,26,6,5,0,0,1,0.899164562812075
3,4,27,6,4,0,0,1,0.980491887079552
3,4,28,6,2,2,1,0,0.84214046318084
3,4,29,6,1,1,0,0,1.22233593603596
3,4,30,6,3,2,2,1,0.754507865058258
3,4,31,6,5,0,0,1,0.658288576174527
3,4,32,6,1,1,1,1,0.917332913959399
3,4,33,6,0,1,1,1,0.78258783207275
3,4,34,6,4,0,0,1,0.676403012825176
3,4,35,6,3,2,2,1,0.678921875078231
3,4,36,6,3,2,2,1,0.657649233937263
3,4,37,6,2,2,2,1,0.372612533159554
3,4,38,6,2,2,2,1,0.443539875093848
3,4,39,6,0,1,1,1,0.855478083947673
3,4,40,6,4,0,0,1,0.706746093928814
3,4,41,6,5,0,0,1,0.796524733072147
3,4,42,6,1,1,1,1,0.697131933178753
3,4,43,6,4,0,0,1,0.730513643939048
3,4,44,6,1,1,1,1,0.858940062113106
3,4,45,6,5,0,0,1,0.654753529001027
3,4,46,6,3,2,2,1,0.618256977992132
3,4,47,6,0,1,1,1,0.590973340906203
3,4,48,6,5,0,0,1,0.644961218116805
3,4,49,6,2,2,2,1,0.801031309179962
3,4,50,6,4,0,0,1,0.60594160691835
3,4,51,6,3,2,2,1,0.659574490971863
3,4,52,6,3,2,2,1,0.543609731132165
3,4,53,6,2,2,2,1,1.09561421512626
3,4,54,6,1,1,1,1,1.00071825808845
3,4,55,6,5,0,0,1,0.573991348035634
3,4,56,6,0,1,1,1,1.10075024701655
3,4,57,6,2,2,2,1,0.558310004882514
3,4,58,6,0,1,1,1,0.605458585079759
3,4,59,6,1,1,0,0,0.954745245166123
3,4,60,6,1,1,1,1,0.506526526063681
3,4,61,6,4,0,0,1,0.635478374082595
3,4,62,6,4,0,0,1,0.720071055926383
3,4,63,6,3,2,2,1,0.64070435706526
3,4,64,6,5,0,0,1,0.692262999946252
3,4,65,6,4,0,0,1,0.814224052010104
3,4,66,6,0,1,1,1,0.643009271007031
3,4,67,6,2,2,2,1,0.655125369084999
3,4,68,6,0,1,1,1,0.651158714899793
3,4,69,6,3,2,2,1,0.582584806950763
3,4,70,6,2,2,2,1,0.660460985964164
3,4,71,6,1,1,1,1,1.06374179804698
3,4,72,6,5,0,0,1,0.658896613167599
3,4,73,6,0,1,1,1,0.557493949076161
3,4,74,6,5,0,0,1,0.685529074864462
3,4,75,6,3,2,2,1,0.599533888977021
3,4,76,6,4,0,0,1,0.636402619071305
3,4,77,6,2,2,2,1,1.20116318203509
3,4,78,6,5,0,0,1,0.565825602971017
3,5,1,3,0,2,0,0,0.245731932809576
3,5,2,3,1,1,0,0,0.385047822026536
3,5,3,3,2,2,0,0,0.287428336217999
3,5,4,3,0,2,2,1,0.241944350069389
3,5,5,3,2,2,2,1,0.597610637079924
3,5,6,3,1,1,1,1,0.339845360023901
3,5,7,3,1,1,1,1,0.523543026065454
3,5,8,3,2,2,2,1,0.388733952771872
3,5,9,3,0,2,2,1,0.506339338142425
3,5,10,3,0,2,2,1,0.47635391401127
3,5,11,3,1,1,1,1,0.382638809038326
3,5,12,3,2,2,-2,-1,-1
3,5,13,3,0,2,2,1,0.885820847004652
3,5,14,3,2,2,2,1,0.408426841022447
3,5,15,3,1,1,1,1,0.581621317891404
3,5,16,3,1,1,1,1,0.475983656011522
3,5,17,3,2,2,2,1,0.39118663687259
3,5,18,3,0,2,2,1,0.652857369044796
3,5,19,3,0,2,2,1,0.568831643089652
3,5,20,3,1,1,1,1,0.647273859009147
3,5,21,3,0,2,2,1,0.418652686988935
3,5,22,3,2,2,2,1,0.767433408880606
3,5,23,3,2,2,2,1,0.438142922939733
3,5,24,3,1,1,1,1,0.402789775980636
3,5,25,3,2,2,2,1,0.392105797072873
3,5,26,3,0,2,2,1,0.494354797992855
3,5,27,3,1,1,1,1,0.53634058102034
3,5,28,3,0,2,2,1,0.528196554863825
3,5,29,3,2,2,2,1,0.545393818058074
3,5,30,3,1,1,1,1,0.593047985807061
3,5,31,3,1,1,1,1,0.623128223000094
3,5,32,3,0,2,2,1,0.556523301871493
3,5,33,3,2,2,2,1,0.420158677967265
3,5,34,3,2,2,2,1,0.416832942981273
3,5,35,3,0,2,2,1,0.58951511583291
3,5,36,3,1,1,1,1,0.571227392880246
3,5,37,3,0,2,2,1,0.617737965891138
3,5,38,3,1,1,1,1,0.623248731950298
3,5,39,3,2,2,2,1,0.491986152948812
3,6,1,6,0,2,0,0,0.24956938996911
3,6,2,6,1,2,0,0,0.221111891092733
3,6,3,6,2,0,0,1,0.346468730131164
3,6,4,6,3,0,0,1,0.338317390996963
3,6,5,6,4,1,0,0,0.377970930188894
3,6,6,6,5,1,0,0,0.176540670916438
3,6,7,6,3,0,0,1,0.623949880013242
3,6,8,6,5,1,2,0,0.484982345020398
3,6,9,6,1,2,1,0,0.975342054152861
3,6,10,6,4,1,2,0,0.621975569985807
3,6,11,6,0,2,1,0,0.570698696887121
3,6,12,6,2,0,0,1,0.776625819969922
3,6,13,6,2,0,0,1,0.504230098100379
3,6,14,6,5,1,2,0,0.728942932095379
3,6,15,6,3,0,0,1,0.649387784069404
3,6,16,6,0,2,1,0,0.653196690836921
3,6,17,6,1,2,2,1,0.928484163014218
3,6,18,6,5,1,1,1,0.856609376147389
3,6,19,6,0,2,1,0,0.964279638137668
3,6,20,6,1,2,2,1,0.730960994958878
3,6,21,6,2,0,0,1,0.618748017121106
3,6,22,6,3,0,0,1,0.535586023936048
3,6,23,6,4,1,1,1,0.743749237153679
3,6,24,6,5,1,2,0,0.487508932827041
3,6,25,6,0,2,1,0,1.16966154891998
3,6,26,6,5,1,2,0,0.69691510591656
3,6,27,6,4,1,1,1,0.738288839813322
3,6,28,6,2,0,0,1,0.586231992812827
3,6,29,6,1,2,2,1,0.664363173069432
3,6,30,6,3,0,0,1,0.595064948080108
3,6,31,6,5,1,1,1,0.7127522949595
3,6,32,6,1,2,2,1,0.617515924153849
3,6,33,6,0,2,2,1,0.830496237147599
3,6,34,6,4,1,1,1,0.643019994022325
3,6,35,6,3,0,0,1,0.526849754154682
3,6,36,6,3,0,0,1,0.471630903892219
3,6,37,6,2,0,0,1,0.490342295961455
3,6,38,6,2,0,0,1,0.476751104928553
3,6,39,6,0,2,1,0,1.19130731001496
3,6,40,6,4,1,1,1,0.661648327950388
3,6,41,6,5,1,1,1,0.673010190948844
3,6,42,6,1,2,2,1,0.475732553983107
3,6,43,6,4,1,2,0,0.494428182020783
3,6,44,6,1,2,2,1,0.536688246065751
3,6,45,6,5,1,1,1,0.576984866987914
3,6,46,6,3,0,0,1,0.615782851818949
3,6,47,6,0,2,2,1,1.21198083483614
3,6,48,6,5,1,1,1,0.552240972872823
3,6,49,6,2,0,0,1,0.624097353080288
3,6,50,6,4,1,1,1,0.63653673697263
3,6,51,6,3,0,0,1,0.513009624090046
3,6,52,6,3,0,0,1,0.385395186021924
3,6,53,6,2,0,0,1,0.512448131106794
3,6,54,6,1,2,2,1,0.656899948837236
3,6,55,6,5,1,1,1,0.612051755888388
3,6,56,6,0,2,2,1,0.417009090073407
3,6,57,6,2,0,0,1,0.533778134966269
3,6,58,6,0,2,2,1,0.54153480916284
3,6,59,6,1,2,2,1,0.614206406055018
3,6,60,6,1,2,2,1,0.546814774861559
3,6,61,6,4,1,1,1,0.562833592994139
3,6,62,6,4,1,1,1,0.521459804149345
3,6,63,6,3,0,0,1,0.633742686128244
3,6,64,6,5,1,1,1,0.901973532978445
3,6,65,6,4,1,1,1,0.743012398015708
3,6,66,6,0,2,2,1,0.535427922848612
3,6,67,6,2,0,0,1,0.54374464112334
3,6,68,6,0,2,2,1,0.519802752882242
3,6,69,6,3,0,0,1,0.584548365091905
3,6,70,6,2,0,0,1,0.575082794995978
3,6,71,6,1,2,2,1,0.533974162070081
3,6,72,6,5,1,1,1,0.629565745824948
3,6,73,6,0,2,2,1,0.569706941954792
3,6,74,6,5,1,1,1,0.568025148008019
3,6,75,6,3,0,0,1,0.639650155091658
3,6,76,6,4,1,1,1,0.603357254061848
3,6,77,6,2,0,0,1,0.528747885953635
3,6,78,6,5,1,1,1,0.608558669919148
3,7,1,6,0,0,0,1,0.237322611035779
3,7,2,6,1,0,0,1,0.505506836110726
3,7,3,6,2,1,2,0,0.379140604054555
3,7,4,6,3,1,0,0,0.552481546066701
3,7,5,6,4,2,2,1,0.591883072862402
3,7,6,6,5,2,2,1,0.614940097089857
3,7,7,6,3,1,1,1,0.99572670692578
3,7,8,6,5,2,2,1,0.688639531843364
3,7,9,6,1,0,0,1,0.970728809013963
3,7,10,6,4,2,2,1,0.937687607016414
3,7,11,6,0,0,0,1,0.601227862993255
3,7,12,6,2,1,2,0,0.918989515164867
3,7,13,6,2,1,1,1,0.511028646957129
3,7,14,6,5,2,1,0,0.77715137694031
3,7,15,6,3,1,2,0,0.767383099067956
3,7,16,6,0,0,0,1,0.590084006078541
3,7,17,6,1,0,0,1,0.380338720045984
3,7,18,6,5,2,1,0,0.779102860949934
3,7,19,6,0,0,0,1,0.544675062876195
3,7,20,6,1,0,0,1,0.464892174815759
3,7,21,6,2,1,2,0,0.571109595010057
3,7,22,6,3,1,0,0,0.946793160168454
3,7,23,6,4,2,2,1,0.770258718868718
3,7,24,6,5,2,1,0,0.688579856883734
3,7,25,6,0,0,0,1,0.530564524931833
3,7,26,6,5,2,2,1,0.658546410035342
3,7,27,6,4,2,2,1,0.694467533845454
3,7,28,6,2,1,2,0,0.815757261123508
3,7,29,6,1,0,0,1,0.549029378918931
3,7,30,6,3,1,2,0,0.972754521062598
3,7,31,6,5,2,2,1,1.16296285507269
3,7,32,6,1,0,0,1,0.657463015988469
3,7,33,6,0,0,0,1,0.573048010002822
3,7,34,6,4,2,2,1,0.603534837020561
3,7,35,6,3,1,1,1,0.624739398015663
3,7,36,6,3,1,1,1,0.510161519050598
3,7,37,6,2,1,2,0,0.47962031001225103
3,7,38,6,2,1,1,1,0.47406941303052
3,7,39,6,0,0,0,1,0.604585386114195
3,7,40,6,4,2,2,1,0.673697669990361
3,7,41,6,5,2,2,1,0.74085643212311
3,7,42,6,1,0,0,1,0.6448705769144
3,7,43,6,4,2,2,1,0.824792248895392
3,7,44,6,1,0,0,1,0.645843015983701
3,7,45,6,5,2,2,1,0.809276411077008
3,7,46,6,3,1,1,1,0.71011500293389
3,7,47,6,0,0,0,1,0.608029898023233
3,7,48,6,5,2,2,1,0.612846459029242
3,7,49,6,2,1,1,1,0.730183504056185
3,7,50,6,4,2,2,1,0.746307716937736
3,7,51,6,3,1,1,1,0.577118603046983
3,7,52,6,3,1,1,1,0.632319132098928
3,7,53,6,2,1,1,1,0.548602846916765
3,7,54,6,1,0,0,1,0.579551744041964
3,7,55,6,5,2,2,1,0.994223149958998
3,7,56,6,0,0,0,1,0.614781792042777
3,7,57,6,2,1,1,1,0.99596936814487
3,7,58,6,0,0,0,1,0.569639412919059
3,7,59,6,1,0,0,1,0.543617933057249
3,7,60,6,1,0,0,1,0.448594423010945
3,7,61,6,4,2,2,1,0.963584271026775
3,7,62,6,4,2,2,1,0.474464190891013
3,7,63,6,3,1,1,1,0.645518716890365
3,7,64,6,5,2,2,1,1.11294914898463
3,7,65,6,4,2,2,1,1.00109383207746
3,7,66,6,0,0,0,1,0.582489154068753
3,7,67,6,2,1,1,1,0.636718901107088
3,7,68,6,0,0,0,1,0.904584622010589
3,7,69,6,3,1,1,1,0.642446336103603
3,7,70,6,2,1,1,1,0.558336257003248
3,7,71,6,1,0,0,1,0.597613301826641
3,7,72,6,5,2,2,1,0.882777434075251
3,7,73,6,0,0,0,1,0.581239814171568
3,7,74,6,5,2,2,1,0.979744642972946
3,7,75,6,3,1,1,1,0.680969378910959
3,7,76,6,4,2,2,1,0.683290247106925
3,7,77,6,2,1,1,1,0.613115985877812
3,7,78,6,5,2,2,1,0.62637851992622
3,8,1,3,0,0,0,1,0.362291666911915
3,8,2,3,1,2,0,0,0.465636464999989
3,8,3,3,2,2,2,1,0.300224447855726
3,8,4,3,0,0,0,1,0.50141561194323
3,8,5,3,2,2,2,1,0.423106719041243
3,8,6,3,1,2,1,0,0.347464400110766
3,8,7,3,1,2,0,0,0.435036681825295
3,8,8,3,2,2,2,1,0.967102377908304
3,8,9,3,0,0,0,1,0.478582591051236
3,8,10,3,0,0,2,0,0.480575480032712
3,8,11,3,1,2,0,0,0.435214305995032
3,8,12,3,2,2,2,1,0.855863518081605
3,8,13,3,0,0,0,1,0.498553659068421
3,8,14,3,2,2,2,1,0.596366978017613
3,8,15,3,1,2,0,0,0.738073094049469
3,8,16,3,1,2,1,0,0.874306901125237
3,8,17,3,2,2,2,1,0.716538900043815
3,8,18,3,0,0,0,1,0.676854494027793
3,8,19,3,0,0,0,1,0.655867904191837
3,8,20,3,1,2,2,1,0.435510404873639
3,8,21,3,0,0,0,1,0.583268985850736
3,8,22,3,2,2,2,1,0.565600442001596
3,8,23,3,2,2,2,1,0.539917071117088
3,8,24,3,1,2,2,1,0.620925998082384
3,8,25,3,2,2,2,1,0.617202689871192
3,8,26,3,0,0,0,1,0.374446739209816
3,8,27,3,1,2,2,1,0.46096119703725
3,8,28,3,0,0,0,1,0.408417667029426
3,8,29,3,2,2,2,1,0.662334518041462
3,8,30,3,1,2,2,1,0.69682269403711
3,8,31,3,1,2,2,1,0.673581530107185
3,8,32,3,0,0,0,1,0.644776683999225
3,8,33,3,2,2,2,1,0.824888117844239
3,8,34,3,2,2,2,1,0.501862640958279
3,8,35,3,0,0,0,1,0.558954282896593
3,8,36,3,1,2,2,1,0.614888580981642
3,8,37,3,0,0,0,1,0.53924977779388406
3,8,38,3,1,2,2,1,0.627573705045506
3,8,39,3,2,2,2,1,0.480250291991979
3,9,1,3,0,1,0,0,0.258932369994
3,9,2,3,1,1,0,0,0.318218562053517
3,9,3,3,2,0,0,1,0.406379827996716
3,9,4,3,0,1,2,0,0.452187393093482
3,9,5,3,2,0,0,1,0.832286183955148
3,9,6,3,1,1,2,0,0.764291320927441
3,9,7,3,1,1,1,1,0.80287005007267
3,9,8,3,2,0,0,1,0.615549094974995
3,9,9,3,0,1,1,1,0.372799190925434
3,9,10,3,0,1,1,1,0.435166765004396
3,9,11,3,1,1,1,1,0.608230848796666
3,9,12,3,2,0,0,1,0.589547656010836
3,9,13,3,0,1,1,1,0.723663764074445
3,9,14,3,2,0,0,1,0.500425010919571
3,9,15,3,1,1,1,1,0.453966257162392
3,9,16,3,1,1,1,1,0.433497883845121
3,9,17,3,2,0,0,1,0.61356380302459
3,9,18,3,0,1,1,1,0.642413217108697
3,9,19,3,0,1,1,1,1.27846508892253
3,9,20,3,1,1,1,1,0.552962072892115
3,9,21,3,0,1,1,1,0.535634462954476
3,9,22,3,2,0,0,1,0.56852418393828
3,9,23,3,2,0,0,1,0.471126698888838
3,9,24,3,1,1,1,1,0.433875901857391
3,9,25,3,2,0,0,1,0.438275201944634
3,9,26,3,0,1,1,1,1.01007934310474
3,9,27,3,1,1,1,1,0.664023555116728
3,9,28,3,0,1,1,1,0.794013099977747
3,9,29,3,2,0,0,1,0.592611009022221
3,9,30,3,1,1,1,1,0.478064544964582
3,9,31,3,1,1,1,1,0.528938998933882
3,9,32,3,0,1,1,1,0.713022080017254
3,9,33,3,2,0,0,1,0.6491820870433
3,9,34,3,2,0,0,1,0.668467518873513
3,9,35,3,0,1,1,1,0.663878964958712
3,9,36,3,1,1,1,1,0.602800045162439
3,9,37,3,0,1,1,1,0.711709107039496
3,9,38,3,1,1,1,1,0.449589154915884
3,9,39,3,2,0,0,1,0.572654012124985
3,10,1,6,0,1,0,0,0.612860708963126
3,10,2,6,1,1,0,0,0.442214486887679
3,10,3,6,2,2,0,0,0.350528513081372
3,10,4,6,3,2,0,0,0.285810771165416
3,10,5,6,4,0,0,1,0.264398769009858
3,10,6,6,5,0,0,1,0.442928428063169
3,10,7,6,3,2,2,1,0.654706393135712
3,10,8,6,5,0,0,1,1.01032967702486
3,10,9,6,1,1,1,1,0.927906065946445
3,10,10,6,4,0,0,1,0.720958563033491
3,10,11,6,0,1,1,1,0.85731573915109
3,10,12,6,2,2,2,1,1.05236966512166
3,10,13,6,2,2,2,1,0.511774461017922
3,10,14,6,5,0,0,1,0.649477978935465
3,10,15,6,3,2,2,1,0.676663357997313
3,10,16,6,0,1,1,1,0.935201144078746
3,10,17,6,1,1,0,0,0.679785353131592
3,10,18,6,5,0,0,1,0.649782841093838
3,10,19,6,0,1,1,1,0.948987301206216
3,10,20,6,1,1,2,0,0.676196492975578
3,10,21,6,2,2,2,1,0.862644026987255
3,10,22,6,3,2,1,0,0.954308232991025
3,10,23,6,4,0,0,1,0.609482948901132
3,10,24,6,5,0,0,1,0.534199212910607
3,10,25,6,0,1,2,0,0.693488986929879
3,10,26,6,5,0,0,1,0.623878998914734
3,10,27,6,4,0,0,1,0.437277799937874
3,10,28,6,2,2,2,1,0.688474833965302
3,10,29,6,1,1,2,0,0.651108611840755
3,10,30,6,3,2,1,0,0.870786756044254
3,10,31,6,5,0,0,1,0.624776986893266
3,10,32,6,1,1,1,1,0.966121564153582
3,10,33,6,0,1,1,1,0.764111371012405
3,10,34,6,4,0,0,1,0.706854165066034
3,10,35,6,3,2,2,1,0.89294059202075
3,10,36,6,3,2,2,1,0.518792203860357
3,10,37,6,2,2,2,1,1.01545664202422
3,10,38,6,2,2,2,1,0.580565528944135
3,10,39,6,0,1,1,1,0.666532516013831
3,10,40,6,4,0,0,1,0.580674968892708
3,10,41,6,5,0,0,1,0.546737512107939
3,10,42,6,1,1,1,1,0.938630549935624
3,10,43,6,4,0,0,1,0.691153320018202
3,10,44,6,1,1,1,1,0.717119622044265
3,10,45,6,5,0,0,1,0.589556830003858
3,10,46,6,3,2,2,1,0.83603371004574
3,10,47,6,0,1,1,1,0.615181158063933
3,10,48,6,5,0,0,1,0.532519423868507
3,10,49,6,2,2,2,1,0.980313295964152
3,10,50,6,4,0,0,1,0.514027214841917
3,10,51,6,3,2,1,0,0.81113248411566
3,10,52,6,3,2,2,1,0.488541767932475
3,10,53,6,2,2,2,1,0.739303128793836
3,10,54,6,1,1,1,1,0.650945720961317
3,10,55,6,5,0,0,1,0.590169060975313
3,10,56,6,0,1,1,1,0.836565111065283
3,10,57,6,2,2,2,1,0.784438200993463
3,10,58,6,0,1,1,1,0.742662914097309
3,10,59,6,1,1,1,1,1.28651169897057
3,10,60,6,1,1,1,1,0.568929513916373
3,10,61,6,4,0,0,1,0.614789661020041
3,10,62,6,4,0,0,1,0.611510972026736
3,10,63,6,3,2,2,1,0.816913940012455
3,10,64,6,5,0,0,1,0.837452877080068
3,10,65,6,4,0,0,1,0.537059192080051
3,10,66,6,0,1,1,1,0.697962753940374
3,10,67,6,2,2,2,1,0.842903501121327
3,10,68,6,0,1,1,1,0.622969639021903
3,10,69,6,3,2,2,1,0.612571045989171
3,10,70,6,2,2,2,1,0.768996505066752
3,10,71,6,1,1,1,1,1.24721270101145
3,10,72,6,5,0,0,1,0.698579635005444
3,10,73,6,0,1,1,1,0.716077381977811
3,10,74,6,5,0,0,1,0.58027396700345
3,10,75,6,3,2,2,1,0.650656115962192
3,10,76,6,4,0,0,1,0.518578584073111
3,10,77,6,2,2,2,1,0.814739819150418
3,10,78,6,5,0,0,1,0.55575935007073
3,11,1,3,0,2,0,0,0.271334126126021
3,11,2,3,1,1,0,0,0.282079856842756
3,11,3,3,2,2,0,0,0.348100811010227
3,11,4,3,0,2,2,1,0.148085618857294
3,11,5,3,2,2,2,1,0.0511526891496032
3,11,6,3,1,1,1,1,0.438469168031588
3,11,7,3,1,1,2,0,0.723196425009519
3,11,8,3,2,2,1,0,0.563559832051396
3,11,9,3,0,2,2,1,0.506722948979586
3,11,10,3,0,2,2,1,0.844401353038847
3,11,11,3,1,1,1,1,0.688350216019899
3,11,12,3,2,2,2,1,0.426742048002779
3,11,13,3,0,2,2,1,0.526975474087521
3,11,14,3,2,2,2,1,0.551423424156383
3,11,15,3,1,1,1,1,0.342933460138738
3,11,16,3,1,1,1,1,0.376057999907061
3,11,17,3,2,2,2,1,0.454296752111986
3,11,18,3,0,2,2,1,0.481729476014152
3,11,19,3,0,2,2,1,0.387922927970067
3,11,20,3,1,1,1,1,0.482098810141906
3,11,21,3,0,2,2,1,0.540720714023337
3,11,22,3,2,2,2,1,0.380795769160613
3,11,23,3,2,2,2,1,0.362592537887394
3,11,24,3,1,1,1,1,0.425715758930892
3,11,25,3,2,2,2,1,0.405907599953935
3,11,26,3,0,2,2,1,0.379941530060023
3,11,27,3,1,1,1,1,0.465616191038862
3,11,28,3,0,2,2,1,0.508484470890835
3,11,29,3,2,2,2,1,0.478543568169698
3,11,30,3,1,1,1,1,0.608936140779406
3,11,31,3,1,1,1,1,0.477979219984263
3,11,32,3,0,2,2,1,0.552696494152769
3,11,33,3,2,2,2,1,0.416411079932004
3,11,34,3,2,2,2,1,0.445141975069419
3,11,35,3,0,2,2,1,0.953636717051268
3,11,36,3,1,1,1,1,0.576900440035388
3,11,37,3,0,2,2,1,0.631813698913902
3,11,38,3,1,1,1,1,0.603254511021078
3,11,39,3,2,2,2,1,1.08092175913043
3,12,1,6,0,2,0,0,0.212093418929726
3,12,2,6,1,2,0,0,0.201247439021245
3,12,3,6,2,0,0,1,0.126615362009034
3,12,4,6,3,0,0,1,0.263521237997338
3,12,5,6,4,1,2,0,0.242347584106028
3,12,6,6,5,1,2,0,0.247461834922433
3,12,7,6,3,0,2,0,0.306819505058229
3,12,8,6,5,1,2,0,0.548769342945889
3,12,9,6,1,2,1,0,0.644053500145674
3,12,10,6,4,1,0,0,0.839255572063848
3,12,11,6,0,2,2,1,0.860257137101144
3,12,12,6,2,0,0,1,0.750990631990135
3,12,13,6,2,0,0,1,0.566338622942567
3,12,14,6,5,1,2,0,0.885657894890755
3,12,15,6,3,0,0,1,0.614981591003016
3,12,16,6,0,2,0,0,0.620608824072406
3,12,17,6,1,2,2,1,1.2886847788468
3,12,18,6,5,1,2,0,0.722477202070877
3,12,19,6,0,2,2,1,0.627335444092751
3,12,20,6,1,2,2,1,0.71244101296179
3,12,21,6,2,0,0,1,0.585346424020827
3,12,22,6,3,0,0,1,0.350670891813934
3,12,23,6,4,1,1,1,0.758740927092731
3,12,24,6,5,1,1,1,0.606014549965039
3,12,25,6,0,2,2,1,0.658969882875681
3,12,26,6,5,1,1,1,0.694948938908055
3,12,27,6,4,1,1,1,0.968563928967342
3,12,28,6,2,0,0,1,0.575734333135188
3,12,29,6,1,2,2,1,0.758829843020067
3,12,30,6,3,0,0,1,0.702089119935408
3,12,31,6,5,1,1,1,0.85570566309616
3,12,32,6,1,2,2,1,0.802676570834592
3,12,33,6,0,2,2,1,0.655943398131058
3,12,34,6,4,1,1,1,0.795412903185934
3,12,35,6,3,0,0,1,0.673955444945022
3,12,36,6,3,0,0,1,0.668556488119066
3,12,37,6,2,0,0,1,0.718937647994608
3,12,38,6,2,0,0,1,0.479508911957964
3,12,39,6,0,2,2,1,1.06605828506872
3,12,40,6,4,1,1,1,0.59666712093167
3,12,41,6,5,1,1,1,0.825435139006004
3,12,42,6,1,2,2,1,0.662181353894994
3,12,43,6,4,1,1,1,0.713511110981926
3,12,44,6,1,2,2,1,1.02619918808341
3,12,45,6,5,1,1,1,0.679091472178698
3,12,46,6,3,0,0,1,0.672794773010537
3,12,47,6,0,2,2,1,0.507921701995656
3,12,48,6,5,1,1,1,0.644963569007814
3,12,49,6,2,0,0,1,0.57673860504292
3,12,50,6,4,1,1,1,0.615750834112987
3,12,51,6,3,0,0,1,0.716849335934967
3,12,52,6,3,0,0,1,0.829426864162087
3,12,53,6,2,0,0,1,0.68902228702791
3,12,54,6,1,2,2,1,0.595390883041546
3,12,55,6,5,1,1,1,0.681120292982087
3,12,56,6,0,2,2,1,0.70686073997058
3,12,57,6,2,0,0,1,0.588833145098761
3,12,58,6,0,2,2,1,0.658617886016145
3,12,59,6,1,2,2,1,1.06227843486704
3,12,60,6,1,2,2,1,0.47289733402431
3,12,61,6,4,1,1,1,0.635264217155054
3,12,62,6,4,1,1,1,0.967666778014973
3,12,63,6,3,0,0,1,0.57477840106003
3,12,64,6,5,1,1,1,0.716942955041304
3,12,65,6,4,1,1,1,0.766125892987475
3,12,66,6,0,2,2,1,0.58892843592912
3,12,67,6,2,0,0,1,0.610117835924029
3,12,68,6,0,2,2,1,1.08052647090517
3,12,69,6,3,0,0,1,0.626425939844921
3,12,70,6,2,0,0,1,0.710381192853674
3,12,71,6,1,2,2,1,0.479996975976974
3,12,72,6,5,1,1,1,0.770478090038523
3,12,73,6,0,2,2,1,0.632585630984977
3,12,74,6,5,1,1,1,0.548637288156897
3,12,75,6,3,0,0,1,0.636974779888988
3,12,76,6,4,1,1,1,0.897234386065975
3,12,77,6,2,0,0,1,0.578385429922491
3,12,78,6,5,1,1,1,0.816248456016183
3,13,1,3,0,1,0,0,0.218328488059342
3,13,2,3,1,0,0,1,0.318966893944889
3,13,3,3,2,0,0,1,0.359269707929343
3,13,4,3,0,1,2,0,0.74329274892807
3,13,5,3,2,0,0,1,0.527440938865766
3,13,6,3,1,0,0,1,0.375885386951268
3,13,7,3,1,0,0,1,0.551115048816428
3,13,8,3,2,0,0,1,0.622621207963675
3,13,9,3,0,1,1,1,0.387568177189678
3,13,10,3,0,1,1,1,0.489186735125259
3,13,11,3,1,0,0,1,0.803667133906856
3,13,12,3,2,0,0,1,0.577010537963361
3,13,13,3,0,1,1,1,0.583642520010471
3,13,14,3,2,0,0,1,0.502186718164012
3,13,15,3,1,0,0,1,0.655317440163344
3,13,16,3,1,0,0,1,0.618820616975427
3,13,17,3,2,0,0,1,0.407640667865053
3,13,18,3,0,1,1,1,0.477004115935415
3,13,19,3,0,1,1,1,0.4637578970287
3,13,20,3,1,0,0,1,0.530139432987198
3,13,21,3,0,1,1,1,0.522892019012943
3,13,22,3,2,0,0,1,0.475545781897381
3,13,23,3,2,0,0,1,0.398791346000507
3,13,24,3,1,0,0,1,0.459408735157922
3,13,25,3,2,0,0,1,0.591635436983779
3,13,26,3,0,1,1,1,0.453308078926057
3,13,27,3,1,0,0,1,0.584990988019854
3,13,28,3,0,1,1,1,0.558938527014107
3,13,29,3,2,0,0,1,0.462747697951272
3,13,30,3,1,0,0,1,0.504978924058378
3,13,31,3,1,0,0,1,0.402971331961453
3,13,32,3,0,1,1,1,0.416193786077201
3,13,33,3,2,0,0,1,0.660971841076389
3,13,34,3,2,0,0,1,0.472589125856757
3,13,35,3,0,1,1,1,0.643773361109197
3,13,36,3,1,0,0,1,0.543088285019621
3,13,37,3,0,1,1,1,0.647743866080418
3,13,38,3,1,0,0,1,0.60306407394819
3,13,39,3,2,0,0,1,0.568051079055294
4,0,1,3,0,0,1,0,1.23301305994391
4,0,2,3,1,1,2,0,0.421002205926925
4,0,3,3,2,1,2,0,1.31345475302078
4,0,4,3,0,0,0,1,1.15462399995886
4,0,5,3,2,1,1,1,0.729552780976519
4,0,6,3,1,1,2,0,0.497451402014121
4,0,7,3,1,1,0,0,1.43512536096387
4,0,8,3,2,1,0,0,1.32714118086733
4,0,9,3,0,0,0,1,0.895112832076848
4,0,10,3,0,0,0,1,0.592551956884563
4,0,11,3,1,1,1,1,0.55734359100461
4,0,12,3,2,1,2,0,0.836644171969965
4,0,13,3,2,1,1,1,0.769236298976466
4,0,14,3,1,1,-2,-1,-1
4,0,15,3,0,0,0,1,0.737044184003025
4,0,16,3,1,1,1,1,0.649342792108655
4,0,17,3,2,1,1,1,0.764519154792652
4,0,18,3,0,0,0,1,0.723002932034433
4,0,19,3,0,0,0,1,0.419396348996088
4,0,20,3,1,1,1,1,0.568776135100052
4,0,21,3,2,1,1,1,1.03154553798959
4,0,22,3,1,1,1,1,0.587619472993538
4,0,23,3,2,1,1,1,0.649891536915675
4,0,24,3,0,0,0,1,0.50131786800921
4,0,25,3,0,0,0,1,0.526298073120415
4,0,26,3,2,1,1,1,0.438839330105111
4,0,27,3,1,1,1,1,0.426782001042739
4,0,28,3,0,0,0,1,0.639442835003138
4,0,29,3,1,1,1,1,0.578618476167321
4,0,30,3,2,1,1,1,0.849022539099678
4,0,31,3,2,1,1,1,0.364596975967288
4,0,32,3,1,1,0,0,0.627428170992061
4,0,33,3,0,0,0,1,0.599127530120313
4,0,34,3,0,0,0,1,0.485021894797683
4,0,35,3,2,1,1,1,0.551215542014688
4,0,36,3,0,0,0,1,0.614321946864948
4,0,37,3,1,1,1,1,0.55483949300833
4,0,38,3,1,1,1,1,0.418616693932563
4,0,39,3,2,1,1,1,0.375898792874068
4,1,1,6,0,0,0,1,0.631290364079177
4,1,2,6,1,0,1,0,0.555415695998818
4,1,3,6,2,1,0,0,0.939503265079111
4,1,4,6,3,1,1,1,1.14739237702452
4,1,5,6,4,2,1,0,0.578603562898934
4,1,6,6,5,2,2,1,0.432887189090252
4,1,7,6,4,2,0,0,0.668893661815673
4,1,8,6,0,0,0,1,0.711445659864694
4,1,9,6,3,1,1,1,0.832294865045696
4,1,10,6,1,0,2,0,0.660252158064395
4,1,11,6,4,2,0,0,0.84740339894779
4,1,12,6,5,2,1,0,0.531231391010806
4,1,13,6,2,1,1,1,1.25156409502961
4,1,14,6,2,1,1,1,0.302446332992986
4,1,15,6,5,2,0,0,0.608253232203424
4,1,16,6,1,0,1,0,0.5816541290842
4,1,17,6,0,0,0,1,0.899776604957879
4,1,18,6,3,1,1,1,0.892433405155316
4,1,19,6,0,0,0,1,0.64674390014261
4,1,20,6,1,0,0,1,0.962314055999741
4,1,21,6,2,1,0,0,0.697059639031067
4,1,22,6,3,1,0,0,0.73882225016132
4,1,23,6,4,2,1,0,1.17072319588624
4,1,24,6,5,2,1,0,0.90527981496416
4,1,25,6,0,0,0,1,0.650015107123181
4,1,26,6,2,1,1,1,0.606158033013344
4,1,27,6,4,2,0,0,0.739051484968513
4,1,28,6,1,0,1,0,0.851705250097439
4,1,29,6,3,1,2,0,0.310322161996737
4,1,30,6,3,1,0,0,0.183328656014055
4,1,31,6,1,0,1,0,0.581714855041355
4,1,32,6,5,2,1,0,0.796117434976622
4,1,33,6,1,0,-2,-1,-1
4,1,34,6,0,0,0,1,0.69046667101793
4,1,35,6,2,1,1,1,0.804103912087157
4,1,36,6,5,2,1,0,0.402043574955314
4,1,37,6,4,2,0,0,0.391570924082771
4,1,38,6,2,1,2,0,0.0532185381744057
4,1,39,6,4,2,-2,-1,-1
4,1,40,6,0,0,0,1,0.538024182897061
4,1,41,6,3,1,1,1,0.47404622496105697
4,1,42,6,5,2,1,0,0.78862938308157
4,1,43,6,5,2,2,1,0.499239355092868
4,1,44,6,1,0,1,0,0.708676991052926
4,1,45,6,2,1,0,0,0.788594482000917
4,1,46,6,3,1,1,1,0.603399589890614
4,1,47,6,0,0,0,1,0.496442821109667
4,1,48,6,4,2,0,0,0.969554490875453
4,1,49,6,1,0,1,0,0.760486731072888
4,1,50,6,3,1,1,1,0.751612992957234
4,1,51,6,4,2,2,1,0.886668347986415
4,1,52,6,0,0,0,1,0.641017653979361
4,1,53,6,5,2,0,0,0.948934600921348
4,1,54,6,0,0,0,1,0.540449350839481
4,1,55,6,2,1,1,1,0.69213185692206
4,1,56,6,2,1,1,1,0.342787223868072
4,1,57,6,1,0,0,1,1.0061798710376
4,1,58,6,4,2,1,0,0.699370237998664
4,1,59,6,3,1,1,1,0.949024641886353
4,1,60,6,5,2,2,1,0.627414095215499
4,1,61,6,1,0,1,0,0.737025703070685
4,1,62,6,0,0,0,1,0.456659919116646
4,1,63,6,5,2,1,0,0.548471437068656
4,1,64,6,4,2,2,1,0.595272453036159
4,1,65,6,5,2,2,1,0.552937333006412
4,1,66,6,2,1,0,0,0.616153140086681
4,1,67,6,3,1,1,1,0.509104070952162
4,1,68,6,3,1,1,1,0.334069886012003
4,1,69,6,4,2,0,0,0.390571730909869
4,1,70,6,2,1,1,1,0.428525530965999
4,1,71,6,1,0,0,1,0.632556587923318
4,1,72,6,1,0,0,1,0.485002069035545
4,1,73,6,0,0,0,1,0.415078394813463
4,1,74,6,3,1,1,1,0.507400271948427
4,1,75,6,0,0,0,1,0.517884189961478
4,1,76,6,5,2,2,1,0.550056123873219
4,1,77,6,3,1,1,1,0.853497066767886
4,1,78,6,4,2,1,0,1.01736383698881
4,2,1,3,0,0,0,1,0.743366993032396
4,2,2,3,1,2,1,0,0.719384281896055
4,2,3,3,2,2,2,1,0.62397133000195
4,2,4,3,0,0,2,0,0.532967534149066
4,2,5,3,2,2,2,1,0.636908490909263
4,2,6,3,1,2,2,1,0.864807680016384
4,2,7,3,1,2,2,1,0.562998539069667
4,2,8,3,2,2,2,1,0.55420597596094
4,2,9,3,0,0,0,1,0.466029606061056
4,2,10,3,0,0,2,0,0.388935441151261
4,2,11,3,1,2,2,1,0.466278000036255
4,2,12,3,2,2,2,1,0.349560212111101
4,2,13,3,2,2,2,1,0.429135716054589
4,2,14,3,1,2,2,1,0.537636418128386
4,2,15,3,0,0,0,1,0.64117028308101
4,2,16,3,1,2,2,1,0.861112321028486
4,2,17,3,2,2,2,1,0.488812260096893
4,2,18,3,0,0,2,0,0.410897800931707
4,2,19,3,0,0,0,1,0.512017796980217
4,2,20,3,1,2,2,1,0.51303557283245
4,2,21,3,2,2,2,1,0.361261687008664
4,2,22,3,1,2,2,1,0.448395849904045
4,2,23,3,2,2,2,1,0.635671113850549
4,2,24,3,0,0,0,1,0.575364473974332
4,2,25,3,0,0,0,1,0.398219043156132
4,2,26,3,2,2,2,1,0.427992862183601
4,2,27,3,1,2,2,1,0.327312103006989
4,2,28,3,0,0,0,1,0.487860946916044
4,2,29,3,1,2,2,1,0.53001017216593
4,2,30,3,2,2,2,1,0.354572396026924
4,2,31,3,2,2,2,1,0.490071428008378
4,2,32,3,1,2,2,1,0.380358222173527
4,2,33,3,0,0,2,0,0.242361973039806
4,2,34,3,0,0,0,1,0.40590958413668
4,2,35,3,2,2,2,1,0.411357583943754
4,2,36,3,0,0,2,0,0.319974575890228
4,2,37,3,1,2,2,1,0.393165034940466
4,2,38,3,1,2,2,1,0.309889734955505
4,2,39,3,2,2,2,1,0.406688506016508
4,3,1,3,0,1,0,0,0.424708653939888
4,3,2,3,1,1,1,1,0.445547373965383
4,3,3,3,2,0,1,0,0.696690949145705
4,3,4,3,0,1,1,1,1.13877104199491
4,3,5,3,2,0,2,0,0.418516959995031
4,3,6,3,1,1,1,1,0.487462661927566
4,3,7,3,1,1,1,1,0.345662930980325
4,3,8,3,2,0,1,0,0.496459039160982
4,3,9,3,0,1,1,1,0.730751304887235
4,3,10,3,0,1,1,1,0.673993570031598
4,3,11,3,1,1,1,1,0.40476787998341
4,3,12,3,2,0,0,1,0.410495007876307
4,3,13,3,2,0,1,0,0.287741071078926
4,3,14,3,1,1,1,1,0.329483512090519
4,3,15,3,0,1,1,1,0.385970669100061
4,3,16,3,1,1,1,1,0.616327998926863
4,3,17,3,2,0,0,1,0.508976108860224
4,3,18,3,0,1,1,1,0.638881860068068
4,3,19,3,0,1,1,1,0.322777638910338
4,3,20,3,1,1,1,1,0.475712759187445
4,3,21,3,2,0,0,1,1.15818842197768
4,3,22,3,1,1,1,1,0.34988693613559
4,3,23,3,2,0,0,1,0.42087179212831
4,3,24,3,0,1,1,1,0.705959320999682
4,3,25,3,0,1,1,1,0.587042751954868
4,3,26,3,2,0,0,1,0.601033345796168
4,3,27,3,1,1,1,1,0.390773315913975
4,3,28,3,0,1,1,1,0.709380045998842
4,3,29,3,1,1,1,1,0.382651237072423
4,3,30,3,2,0,0,1,0.436943905893713
4,3,31,3,2,0,0,1,0.377043006010354
4,3,32,3,1,1,1,1,0.423262760974467
4,3,33,3,0,1,1,1,0.340247723972425
4,3,34,3,0,1,1,1,0.436504088109359
4,3,35,3,2,0,1,0,0.329058979870752
4,3,36,3,0,1,1,1,0.320950887864456
4,3,37,3,1,1,1,1,0.386112524894997
4,3,38,3,1,1,1,1,0.328059175983071
4,3,39,3,2,0,0,1,0.361284982878715
4,4,1,6,0,1,0,0,0.56323709199205
4,4,2,6,1,1,1,1,0.450433053076267
4,4,3,6,2,2,1,0,0.501288248924538
4,4,4,6,3,2,2,1,0.671067434828728
4,4,5,6,4,0,1,0,0.865825224900618
4,4,6,6,5,0,1,0,0.500508429016918
4,4,7,6,4,0,1,0,0.590512976050377
4,4,8,6,0,1,1,1,0.348121284972876
4,4,9,6,3,2,0,0,0.507937769871205
4,4,10,6,1,1,1,1,0.55739202699624
4,4,11,6,4,0,1,0,0.772924405988306
4,4,12,6,5,0,0,1,0.659308582078665
4,4,13,6,2,2,1,0,0.734814211959019
4,4,14,6,2,2,0,0,0.502743186894804
4,4,15,6,5,0,1,0,0.527835571905598
4,4,16,6,1,1,1,1,0.536812972044572
4,4,17,6,0,1,1,1,0.529181358870119
4,4,18,6,3,2,2,1,0.569742856081575
4,4,19,6,0,1,1,1,0.543971988139674
4,4,20,6,1,1,2,0,0.528528765076771
4,4,21,6,2,2,2,1,0.944950049975887
4,4,22,6,3,2,2,1,0.457411903887987
4,4,23,6,4,0,2,0,0.724187584826723
4,4,24,6,5,0,0,1,0.868973626988009
4,4,25,6,0,1,1,1,0.575532617047429
4,4,26,6,2,2,0,0,1.03837181185372
4,4,27,6,4,0,1,0,0.866788039915264
4,4,28,6,1,1,1,1,0.613431056961417
4,4,29,6,3,2,2,1,0.578695658827201
4,4,30,6,3,2,2,1,0.329124273965135
4,4,31,6,1,1,1,1,0.609178357990459
4,4,32,6,5,0,0,1,0.462405825965106
4,4,33,6,1,1,1,1,0.601803987985477
4,4,34,6,0,1,1,1,0.799043653998524
4,4,35,6,2,2,0,0,0.652489553904161
4,4,36,6,5,0,0,1,0.663275118218735
4,4,37,6,4,0,0,1,0.746758528985083
4,4,38,6,2,2,1,0,0.665401429170743
4,4,39,6,4,0,0,1,0.612909614108503
4,4,40,6,0,1,1,1,0.472959388047457
4,4,41,6,3,2,2,1,0.740031008142978
4,4,42,6,5,0,0,1,0.596087177051231
4,4,43,6,5,0,0,1,0.514086395036429
4,4,44,6,1,1,1,1,0.466545575996861
4,4,45,6,2,2,1,0,0.461723535787314
4,4,46,6,3,2,2,1,0.584781466983259
4,4,47,6,0,1,1,1,0.615179222077131
4,4,48,6,4,0,2,0,0.660211923997849
4,4,49,6,1,1,1,1,0.423386523034424
4,4,50,6,3,2,2,1,0.691809167852625
4,4,51,6,4,0,1,0,0.462252357043326
4,4,52,6,0,1,1,1,0.592775200027972
4,4,53,6,5,0,0,1,0.535264518111944
4,4,54,6,0,1,1,1,0.743137279059738
4,4,55,6,2,2,0,0,1.00711637805216
4,4,56,6,2,2,2,1,0.532242827815935
4,4,57,6,1,1,1,1,0.54057615599595
4,4,58,6,4,0,0,1,0.453071376075968
4,4,59,6,3,2,2,1,0.768605174962431
4,4,60,6,5,0,0,1,0.631169069092721
4,4,61,6,1,1,1,1,0.411046056076884
4,4,62,6,0,1,1,1,0.368684982182458
4,4,63,6,5,0,0,1,0.479842967120931
4,4,64,6,4,0,2,0,0.521668741945177
4,4,65,6,5,0,0,1,0.5863841928076
4,4,66,6,2,2,1,0,0.528066243045032
4,4,67,6,3,2,2,1,0.553566209971905
4,4,68,6,3,2,2,1,0.401098842034116
4,4,69,6,4,0,0,1,0.766336885048077
4,4,70,6,2,2,2,1,0.653144072974101
4,4,71,6,1,1,1,1,0.568883989937603
4,4,72,6,1,1,1,1,0.302857914939523
4,4,73,6,0,1,1,1,0.305016554193571
4,4,74,6,3,2,2,1,0.482784043997526
4,4,75,6,0,1,2,0,0.380765846930444
4,4,76,6,5,0,0,1,0.57094530086033
4,4,77,6,3,2,2,1,0.64183930400759
4,4,78,6,4,0,0,1,0.70972966006957
4,5,1,3,0,2,0,0,1.41778146801516
4,5,2,3,1,1,1,1,0.49427289608866
4,5,3,3,2,2,1,0,0.50449731410481
4,5,4,3,0,2,1,0,0.593401028076187
4,5,5,3,2,2,0,0,0.263762327143922
4,5,6,3,1,1,1,1,0.402964921901003
4,5,7,3,1,1,1,1,0.319844518089667
4,5,8,3,2,2,2,1,0.21733711194247
4,5,9,3,0,2,0,0,0.645423114998266
4,5,10,3,0,2,2,1,0.585921254009008
4,5,11,3,1,1,1,1,0.504470985848457
4,5,12,3,2,2,2,1,0.433991719037294
4,5,13,3,2,2,2,1,0.341878765029833
4,5,14,3,1,1,2,0,0.429711685050279
4,5,15,3,0,2,2,1,0.77828156715259
4,5,16,3,1,1,1,1,0.568892223061994
4,5,17,3,2,2,2,1,0.415614427998662
4,5,18,3,0,2,2,1,0.852569387992844
4,5,19,3,0,2,2,1,0.471691975137219
4,5,20,3,1,1,1,1,0.707085276953876
4,5,21,3,2,2,2,1,0.436050290940329
4,5,22,3,1,1,1,1,0.551847995026037
4,5,23,3,2,2,2,1,0.448059360031039
4,5,24,3,0,2,2,1,0.907337674871087
4,5,25,3,0,2,2,1,0.364318270934746
4,5,26,3,2,2,2,1,0.587292988086119
4,5,27,3,1,1,1,1,0.409575078869238
4,5,28,3,0,2,2,1,0.511503721121699
4,5,29,3,1,1,1,1,0.568729771999642
4,5,30,3,2,2,2,1,0.271357143996283
4,5,31,3,2,2,2,1,0.16239804495126
4,5,32,3,1,1,1,1,0.36935624293983
4,5,33,3,0,2,2,1,0.215778537793085
4,5,34,3,0,2,2,1,0.556560690980405
4,5,35,3,2,2,1,0,0.412600805982947
4,5,36,3,0,2,2,1,0.729358985088766
4,5,37,3,1,1,1,1,0.641275109024718
4,5,38,3,1,1,1,1,0.525673124007881
4,5,39,3,2,2,2,1,0.446512160124257
4,6,1,6,0,2,0,0,0.394347811117768
4,6,2,6,1,2,2,1,0.176458287984133
4,6,3,6,2,0,2,0,0.543069538893178
4,6,4,6,3,0,1,0,0.558827729197219
4,6,5,6,4,1,0,0,0.406967288115993
4,6,6,6,5,1,1,1,0.476624898146838
4,6,7,6,4,1,1,1,0.718443109886721
4,6,8,6,0,2,1,0,0.383310680044815
4,6,9,6,3,0,2,0,0.573065723991022
4,6,10,6,1,2,2,1,0.532231791876256
4,6,11,6,4,1,1,1,0.403730791062117
4,6,12,6,5,1,0,0,0.554082424147055
4,6,13,6,2,0,1,0,0.625208135927096
4,6,14,6,2,0,2,0,0.558149590156972
4,6,15,6,5,1,1,1,0.805061188992113
4,6,16,6,1,2,2,1,0.578792402986437
4,6,17,6,0,2,1,0,0.392904668115079
4,6,18,6,3,0,1,0,0.639251362998039
4,6,19,6,0,2,1,0,0.531345583964139
4,6,20,6,1,2,2,1,0.531118602026254
4,6,21,6,2,0,1,0,0.899363012984395
4,6,22,6,3,0,0,1,1.1243597229477
4,6,23,6,4,1,1,1,0.573878432856873
4,6,24,6,5,1,1,1,0.827806663000956
4,6,25,6,0,2,2,1,0.656714132986963
4,6,26,6,2,0,2,0,0.628103425959125
4,6,27,6,4,1,1,1,0.969277160009369
4,6,28,6,1,2,2,1,0.519633200019598
4,6,29,6,3,0,0,1,0.680935069918633
4,6,30,6,3,0,0,1,0.386896659852937
4,6,31,6,1,2,2,1,0.545077314134687
4,6,32,6,5,1,1,1,0.512877387925982
4,6,33,6,1,2,2,1,0.4581938770134
4,6,34,6,0,2,2,1,0.781092955032364
4,6,35,6,2,0,0,1,0.683323272038251
4,6,36,6,5,1,1,1,0.493313974002376
4,6,37,6,4,1,1,1,1.08783821784891
4,6,38,6,2,0,0,1,0.897507712012157
4,6,39,6,4,1,1,1,0.466361800208688
4,6,40,6,0,2,2,1,0.68572716997005
4,6,41,6,3,0,0,1,0.687986979959533
4,6,42,6,5,1,1,1,0.465257572010159
4,6,43,6,5,1,1,1,0.396521263057366
4,6,44,6,1,2,2,1,0.442119956947863
4,6,45,6,2,0,0,1,0.558737945975736
4,6,46,6,3,0,0,1,0.709510549902916
4,6,47,6,0,2,2,1,0.679515011841431
4,6,48,6,4,1,1,1,0.593234193976969
4,6,49,6,1,2,2,1,0.471868271008134
4,6,50,6,3,0,0,1,0.538304133107886
4,6,51,6,4,1,1,1,0.97812734101899
4,6,52,6,0,2,2,1,0.513088389066979
4,6,53,6,5,1,1,1,0.625828929943964
4,6,54,6,0,2,2,1,0.558993545826524
4,6,55,6,2,0,0,1,0.574037645943463
4,6,56,6,2,0,0,1,0.692859635921195
4,6,57,6,1,2,2,1,0.559041703119874
4,6,58,6,4,1,1,1,0.614758541807532
4,6,59,6,3,0,0,1,0.587369249900803
4,6,60,6,5,1,1,1,0.777354124002159
4,6,61,6,1,2,2,1,0.472202679142356
4,6,62,6,0,2,2,1,0.746792698046193
4,6,63,6,5,1,1,1,0.522513975156471
4,6,64,6,4,1,1,1,0.539010097039863
4,6,65,6,5,1,1,1,0.635114671196789
4,6,66,6,2,0,0,1,0.767612961819395
4,6,67,6,3,0,0,1,0.405705265933648
4,6,68,6,3,0,0,1,0.411417622119188
4,6,69,6,4,1,1,1,0.480992826167494
4,6,70,6,2,0,2,0,0.435431598918512
4,6,71,6,1,2,2,1,0.438807690981776
4,6,72,6,1,2,2,1,0.379436395131052
4,6,73,6,0,2,2,1,0.577198490034789
4,6,74,6,3,0,0,1,0.512527137994766
4,6,75,6,0,2,2,1,0.57723106094636
4,6,76,6,5,1,1,1,0.464247191091999
4,6,77,6,3,0,0,1,0.547214816091582
4,6,78,6,4,1,1,1,0.490798362065107
4,7,1,6,0,0,0,1,0.728705459041521
4,7,2,6,1,0,1,0,0.537105909083039
4,7,3,6,2,1,1,1,0.80095050483942
4,7,4,6,3,1,1,1,0.646148138912395
4,7,5,6,4,2,1,0,0.538050791015849
4,7,6,6,5,2,2,1,0.769944991916418
4,7,7,6,4,2,2,1,0.720959529979154
4,7,8,6,0,0,1,0,0.481416101101786
4,7,9,6,3,1,1,1,0.660006967838854
4,7,10,6,1,0,1,0,0.679333069128916
4,7,11,6,4,2,1,0,0.553646940970793
4,7,12,6,5,2,2,1,0.544711883878335
4,7,13,6,2,1,2,0,0.497063300106674
4,7,14,6,2,1,0,0,0.514391334028915
4,7,15,6,5,2,2,1,0.907415297813714
4,7,16,6,1,0,1,0,0.724639121908695
4,7,17,6,0,0,0,1,0.589638277888298
4,7,18,6,3,1,1,1,0.587627108907327
4,7,19,6,0,0,0,1,0.513467500917614
4,7,20,6,1,0,1,0,0.402428773930296
4,7,21,6,2,1,0,0,0.895877280039713
4,7,22,6,3,1,1,1,0.721427170094103
4,7,23,6,4,2,2,1,0.546067435061559
4,7,24,6,5,2,2,1,0.577401267830282
4,7,25,6,0,0,0,1,0.479758770205081
4,7,26,6,2,1,1,1,0.538528931094334
4,7,27,6,4,2,2,1,0.490599174983799
4,7,28,6,1,0,0,1,0.732043833006173
4,7,29,6,3,1,1,1,0.860722559969872
4,7,30,6,3,1,1,1,0.535668721189722
4,7,31,6,1,0,0,1,0.616116330958903
4,7,32,6,5,2,2,1,0.540791917825118
4,7,33,6,1,0,0,1,0.669268047204241
4,7,34,6,0,0,0,1,0.535680952947587
4,7,35,6,2,1,0,0,0.74392099189572
4,7,36,6,5,2,2,1,0.656219305936247
4,7,37,6,4,2,2,1,0.498857686994597
4,7,38,6,2,1,1,1,0.508821021998301
4,7,39,6,4,2,2,1,0.661848871968687
4,7,40,6,0,0,1,0,0.417786705074832
4,7,41,6,3,1,1,1,0.670568954898044
4,7,42,6,5,2,2,1,0.52955913497135
4,7,43,6,5,2,2,1,0.417326264083385
4,7,44,6,1,0,0,1,0.605883865151554
4,7,45,6,2,1,1,1,0.460129237035289
4,7,46,6,3,1,1,1,0.663272923091426
4,7,47,6,0,0,0,1,0.482373486971483
4,7,48,6,4,2,2,1,0.524465549970046
4,7,49,6,1,0,1,0,0.58937711105682
4,7,50,6,3,1,1,1,0.507260873913765
4,7,51,6,4,2,2,1,0.428889221977443
4,7,52,6,0,0,0,1,0.488445432158187
4,7,53,6,5,2,2,1,0.506795480847359
4,7,54,6,0,0,0,1,0.844425355782732
4,7,55,6,2,1,1,1,0.807901011081412
4,7,56,6,2,1,1,1,0.542068268870935
4,7,57,6,1,0,0,1,0.661448044003919
4,7,58,6,4,2,2,1,0.481202170019969
4,7,59,6,3,1,1,1,0.507633781060576
4,7,60,6,5,2,2,1,0.573237528093159
4,7,61,6,1,0,1,0,0.747939767083153
4,7,62,6,0,0,0,1,0.539377591107041
4,7,63,6,5,2,2,1,0.475402833893895
4,7,64,6,4,2,2,1,0.830167006002739
4,7,65,6,5,2,2,1,0.498421655967832
4,7,66,6,2,1,1,1,0.683812967035919
4,7,67,6,3,1,1,1,0.653678562026471
4,7,68,6,3,1,1,1,0.393578147981316
4,7,69,6,4,2,2,1,0.479073676979169
4,7,70,6,2,1,1,1,0.809648712864146
4,7,71,6,1,0,0,1,0.790927011054009
4,7,72,6,1,0,0,1,0.396941498154774
4,7,73,6,0,0,0,1,0.514477160060778
4,7,74,6,3,1,1,1,0.443226465955377
4,7,75,6,0,0,0,1,0.559162669116631
4,7,76,6,5,2,2,1,0.526367773069069
4,7,77,6,3,1,1,1,0.50307027506642
4,7,78,6,4,2,2,1,0.432586949085817
4,8,1,3,0,0,0,1,0.505128454882652
4,8,2,3,1,2,1,0,0.490403471048921
4,8,3,3,2,2,2,1,0.652704525971785
4,8,4,3,0,0,2,0,0.432249369099736
4,8,5,3,2,2,2,1,0.548584957839921
4,8,6,3,1,2,0,0,0.779529982013628
4,8,7,3,1,2,1,0,0.977945739869028
4,8,8,3,2,2,2,1,0.480209604837
4,8,9,3,0,0,0,1,0.594907761085778
4,8,10,3,0,0,0,1,0.528288257075474
4,8,11,3,1,2,2,1,0.337733190972358
4,8,12,3,2,2,2,1,0.602067024912685
4,8,13,3,2,2,2,1,0.447218206012622
4,8,14,3,1,2,0,0,0.451114196097478
4,8,15,3,0,0,0,1,0.462010690942407
4,8,16,3,1,2,2,1,0.321822104044259
4,8,17,3,2,2,2,1,0.426066951826215
4,8,18,3,0,0,0,1,0.40744088194333
4,8,19,3,0,0,0,1,0.389257024973631
4,8,20,3,1,2,2,1,0.307190990075469
4,8,21,3,2,2,2,1,0.22849399712868
4,8,22,3,1,2,2,1,0.65719126118347
4,8,23,3,2,2,2,1,0.516232236055657
4,8,24,3,0,0,0,1,0.508906011935323
4,8,25,3,0,0,0,1,0.342475653858855
4,8,26,3,2,2,2,1,0.422258293023333
4,8,27,3,1,2,2,1,0.25975173804909
4,8,28,3,0,0,0,1,0.407501345966011
4,8,29,3,1,2,2,1,0.300716887926683
4,8,30,3,2,2,2,1,0.550197617150843
4,8,31,3,2,2,2,1,0.245516704861075
4,8,32,3,1,2,2,1,0.329473426099867
4,8,33,3,0,0,0,1,0.449284716043621
4,8,34,3,0,0,2,0,0.285167021909729
4,8,35,3,2,2,2,1,0.335431367857382
4,8,36,3,0,0,0,1,0.359484347980469
4,8,37,3,1,2,2,1,0.358780385926366
4,8,38,3,1,2,2,1,0.310583327198401
4,8,39,3,2,2,2,1,0.383505262900144
4,9,1,3,0,1,0,0,0.484726199880242
4,9,2,3,1,1,0,0,0.414962328970432
4,9,3,3,2,0,0,1,0.371652971021831
4,9,4,3,0,1,1,1,0.579262295039371
4,9,5,3,2,0,1,0,0.848933298839256
4,9,6,3,1,1,0,0,0.4606099401135
4,9,7,3,1,1,1,1,0.615718473913148
4,9,8,3,2,0,0,1,0.612918294034898
4,9,9,3,0,1,1,1,0.689054565038532
4,9,10,3,0,1,1,1,0.355356625048444
4,9,11,3,1,1,1,1,0.666821787832305
4,9,12,3,2,0,0,1,0.638120542978868
4,9,13,3,2,0,0,1,0.497705473098904
4,9,14,3,1,1,1,1,0.475665985140949
4,9,15,3,0,1,0,0,0.414076725952327
4,9,16,3,1,1,1,1,0.643021043157205
4,9,17,3,2,0,0,1,0.518634828040376
